ID,Block,Trial,Task,Accuracy,RT
801,1,1,2,1,1752.04
801,1,2,2,1,823.718
801,1,3,2,1,646.493
801,1,4,2,1,592.449
801,1,5,2,1,679.79
801,1,6,2,1,761.609
801,1,7,2,0,555.387
801,1,8,2,1,1020.5
801,1,9,2,1,1090.44
801,1,10,2,1,2086.91
801,1,11,2,1,688.475
801,1,12,2,1,682.268
801,1,13,2,0,1228.09
801,1,14,2,1,964.625
801,1,15,2,1,832.73
801,1,16,2,1,692.578
801,1,17,2,1,929.221
801,1,18,2,1,642.677
801,1,19,2,1,775.196
801,1,20,2,1,691.337
801,2,1,1,1,9886.39
801,2,2,1,1,1587.63
801,2,3,1,1,1104.97
801,2,4,1,1,1143.48
801,2,5,1,1,1050.86
801,2,6,1,1,998.798
801,2,7,1,1,1247.94
801,2,8,1,1,984.778
801,2,9,1,1,975.207
801,2,10,1,1,917.912
801,2,11,1,1,999.167
801,2,12,1,1,1056.32
801,2,13,1,1,964.294
801,2,14,1,1,869.387
801,2,15,1,1,879.062
801,2,16,1,1,981.748
801,2,17,1,1,953.537
801,2,18,1,1,858.807
801,2,19,1,1,935.006
801,2,20,1,1,1027.01
801,3,1,1,1,1989.05
801,3,2,1,1,1033.52
801,3,3,1,1,882.657
801,3,4,1,1,844.132
801,3,5,1,1,853.618
801,3,6,1,1,892.677
801,3,7,1,1,795.111
801,3,8,1,1,956.678
801,3,9,1,1,846.036
801,3,10,1,1,1063.55
801,3,11,1,1,854.059
801,3,12,1,1,895.553
801,3,13,1,1,886.299
801,3,14,1,1,1103.71
801,3,15,1,1,981.862
801,3,16,1,1,1052.48
801,3,17,1,1,867.021
801,3,18,1,1,945.812
801,3,19,1,1,944.367
801,3,20,1,1,927.026
801,4,1,2,1,856.263
801,4,2,2,1,668.673
801,4,3,2,1,643.694
801,4,4,2,1,712.325
801,4,5,2,1,921.937
801,4,6,2,1,667.359
801,4,7,2,1,698.47
801,4,8,2,1,783.145
801,4,9,2,1,603.214
801,4,10,2,1,733.414
801,4,11,2,1,841.759
801,4,12,2,1,651.155
801,4,13,2,1,703.715
801,4,14,2,1,777.566
801,4,15,2,1,749.841
801,4,16,2,1,940.829
801,4,17,2,1,608.892
801,4,18,2,1,653.489
801,4,19,2,1,706.137
801,4,20,2,1,785.167
801,5,1,2,1,844.964
801,5,2,2,1,609.045
801,5,3,2,1,837.747
801,5,4,2,1,687.179
801,5,5,2,1,579.609
801,5,6,2,1,498.941
801,5,7,2,1,647.799
801,5,8,2,1,641.706
801,5,9,2,1,691.789
801,5,10,2,1,669.367
801,5,11,2,1,628.593
801,5,12,2,1,787.882
801,5,13,2,1,661.396
801,5,14,2,1,657.965
801,5,15,2,1,702.601
801,5,16,2,1,909.696
801,5,17,2,1,964.332
801,5,18,2,1,744.368
801,5,19,2,1,743.27
801,5,20,2,1,675.67
801,6,1,1,1,1756.41
801,6,2,1,1,1132.24
801,6,3,1,1,1007.95
801,6,4,1,1,801.017
801,6,5,1,0,885.281
801,6,6,1,1,896.699
801,6,7,1,1,871.255
801,6,8,1,1,846.145
801,6,9,1,1,999.745
801,6,10,1,1,1097.06
801,6,11,1,1,831.204
801,6,12,1,1,1064.74
801,6,13,1,1,1383.04
801,6,14,1,1,932.916
801,6,15,1,1,936.821
801,6,16,1,1,1004.9
801,6,17,1,1,982.053
801,6,18,1,1,850.049
801,6,19,1,1,827.552
801,6,20,1,1,1114.54
801,7,1,1,1,1323.07
801,7,2,1,1,939.808
801,7,3,1,1,903.686
801,7,4,1,1,939.867
801,7,5,1,1,1010.55
801,7,6,1,1,1126.37
801,7,7,1,1,879.346
801,7,8,1,1,896.825
801,7,9,1,1,996.903
801,7,10,1,1,1150.04
801,7,11,1,1,1102.87
801,7,12,1,1,962.657
801,7,13,1,1,1019.85
801,7,14,1,1,954.389
801,7,15,1,1,1496.89
801,7,16,1,1,1238.76
801,7,17,1,1,935.31
801,7,18,1,1,819.272
801,7,19,1,1,834.134
801,7,20,1,1,761.128
801,8,1,2,1,804.072
801,8,2,2,1,765.791
801,8,3,2,1,799.389
801,8,4,2,1,712.978
801,8,5,2,1,706.799
801,8,6,2,1,721.891
801,8,7,2,1,819.613
801,8,8,2,1,791.871
801,8,9,2,1,798.939
801,8,10,2,1,640.421
801,8,11,2,1,1010.33
801,8,12,2,1,770.826
801,8,13,2,1,738.481
801,8,14,2,1,833.5
801,8,15,2,1,723.076
801,8,16,2,1,772.739
801,8,17,2,1,625.088
801,8,18,2,1,720.281
801,8,19,2,1,684.764
801,8,20,2,1,590.481
801,9,1,2,1,1004.87
801,9,2,2,1,574.18
801,9,3,2,1,730.986
801,9,4,2,1,663.328
801,9,5,2,1,662.655
801,9,6,2,1,557.784
801,9,7,2,1,653.159
801,9,8,2,1,673.654
801,9,9,2,1,635.576
801,9,10,2,1,594.797
801,9,11,2,1,724.779
801,9,12,2,1,542.524
801,9,13,2,0,630.01
801,9,14,2,1,663.138
801,9,15,2,1,763.788
801,9,16,2,1,725.339
801,9,17,2,1,617.671
801,9,18,2,1,629.7
801,9,19,2,1,829.672
801,9,20,2,1,639.268
801,10,1,1,1,957.812
801,10,2,1,1,895.328
801,10,3,1,1,845.817
801,10,4,1,1,727.336
801,10,5,1,1,1065.18
801,10,6,1,1,813.047
801,10,7,1,1,985.163
801,10,8,1,1,1543.66
801,10,9,1,1,973.233
801,10,10,1,1,1531.74
801,10,11,1,1,1006.54
801,10,12,1,1,922.387
801,10,13,1,1,843.864
801,10,14,1,1,749.239
801,10,15,1,1,860.38
801,10,16,1,1,859.208
801,10,17,1,1,735.319
801,10,18,1,1,947.712
801,10,19,1,1,858.281
801,10,20,1,1,953.088
801,11,1,1,1,953.133
801,11,2,1,1,746.534
801,11,3,1,1,697.445
801,11,4,1,1,797.911
801,11,5,1,1,959.549
801,11,6,1,1,1008.83
801,11,7,1,1,1108.64
801,11,8,1,1,882.976
801,11,9,1,0,919.101
801,11,10,1,1,999.76
801,11,11,1,1,880.855
801,11,12,1,1,842.284
801,11,13,1,1,1724.02
801,11,14,1,1,813.741
801,11,15,1,1,1162.54
801,11,16,1,1,859.442
801,11,17,1,1,1007.68
801,11,18,1,1,904.728
801,11,19,1,1,868.34
801,11,20,1,1,782.371
801,12,1,2,1,899.983
801,12,2,2,1,730.861
801,12,3,2,1,639.349
801,12,4,2,1,782.551
801,12,5,2,1,709.601
801,12,6,2,1,892.578
801,12,7,2,1,624.599
801,12,8,2,1,703.897
801,12,9,2,1,687.087
801,12,10,2,1,707.486
801,12,11,2,1,749.267
801,12,12,2,1,708.319
801,12,13,2,1,659.37
801,12,14,2,1,735.93
801,12,15,2,1,814.976
801,12,16,2,1,843.227
801,12,17,2,1,756.871
801,12,18,2,1,654.517
801,12,19,2,1,741.638
801,12,20,2,1,620.885
801,13,1,2,1,607.586
801,13,2,2,1,780.323
801,13,3,2,1,584.619
801,13,4,2,1,560.026
801,13,5,2,1,607.448
801,13,6,2,1,465.494
801,13,7,2,1,481.002
801,13,8,2,1,584.597
801,13,9,2,0,455.843
801,13,10,2,1,712.798
801,13,11,2,1,623.908
801,13,12,2,1,551.861
801,13,13,2,1,703.214
801,13,14,2,1,582.254
801,13,15,2,1,749.759
801,13,16,2,1,679.241
801,13,17,2,1,689.197
801,13,18,2,1,570.302
801,13,19,2,1,674.368
801,13,20,2,1,643.359
801,14,1,1,1,1693.17
801,14,2,1,1,980.995
801,14,3,1,1,889.004
801,14,4,1,1,893.073
801,14,5,1,1,846.538
801,14,6,1,1,1007.99
801,14,7,1,1,819.806
801,14,8,1,1,904
801,14,9,1,1,764.194
801,14,10,1,1,981.895
801,14,11,1,1,1004.43
801,14,12,1,1,861.752
801,14,13,1,1,849.658
801,14,14,1,1,1005.82
801,14,15,1,1,777.752
801,14,16,1,1,933.942
801,14,17,1,1,908.728
801,14,18,1,1,1243.36
801,14,19,1,1,830.72
801,14,20,1,1,704.385
801,15,1,1,1,1110.92
801,15,2,1,1,877.189
801,15,3,1,1,910.598
801,15,4,1,1,903.987
801,15,5,1,1,974.712
801,15,6,1,1,946.668
801,15,7,1,1,905.327
801,15,8,1,1,800.132
801,15,9,1,1,889.54
801,15,10,1,1,941.797
801,15,11,1,1,980.337
801,15,12,1,1,848.234
801,15,13,1,1,908.562
801,15,14,1,1,747.07
801,15,15,1,1,722.123
801,15,16,1,1,883.891
801,15,17,1,1,885.315
801,15,18,1,1,942.736
801,15,19,1,1,1045.56
801,15,20,1,1,934.544
801,16,1,2,1,763.747
801,16,2,2,1,581.587
801,16,3,2,1,682.148
801,16,4,2,1,620.061
801,16,5,2,1,1115.28
801,16,6,2,1,772.147
801,16,7,2,1,672.577
801,16,8,2,1,842.41
801,16,9,2,1,651.899
801,16,10,2,1,576.457
801,16,11,2,1,661.153
801,16,12,2,1,721.578
801,16,13,2,1,835.582
801,16,14,2,1,716.993
801,16,15,2,1,636.024
801,16,16,2,1,989.908
801,16,17,2,1,716.597
801,16,18,2,1,731.65
801,16,19,2,1,656.012
801,16,20,2,1,644.613
801,17,1,2,1,728.737
801,17,2,2,1,733.298
801,17,3,2,1,681.605
801,17,4,2,1,579.382
801,17,5,2,1,704.071
801,17,6,2,1,735.294
801,17,7,2,1,699.756
801,17,8,2,1,528.131
801,17,9,2,1,700.859
801,17,10,2,1,563.934
801,17,11,2,1,774.056
801,17,12,2,1,690.469
801,17,13,2,1,716.103
801,17,14,2,1,621.831
801,17,15,2,1,586.581
801,17,16,2,1,713.913
801,17,17,2,1,681.028
801,17,18,2,1,578.958
801,17,19,2,1,631.489
801,17,20,2,1,665.392
801,18,1,1,1,953.944
801,18,2,1,1,832.69
801,18,3,1,1,879.65
801,18,4,1,0,950.277
801,18,5,1,1,870.934
801,18,6,1,1,909.687
801,18,7,1,1,788.306
801,18,8,1,1,1355.38
801,18,9,1,1,1137.22
801,18,10,1,1,980.987
801,18,11,1,1,920.828
801,18,12,1,1,860.757
801,18,13,1,1,874.97
801,18,14,1,1,757.128
801,18,15,1,1,966.655
801,18,16,1,1,768.074
801,18,17,1,1,796.31
801,18,18,1,1,869.894
801,18,19,1,1,831.25
801,18,20,1,1,864.792
801,19,1,1,1,1167.13
801,19,2,1,1,1002.71
801,19,3,1,1,892.038
801,19,4,1,1,839.978
801,19,5,1,1,849.51
801,19,6,1,1,973.675
801,19,7,1,1,1009.66
801,19,8,1,1,826.824
801,19,9,1,1,721.664
801,19,10,1,1,782.081
801,19,11,1,1,1482.43
801,19,12,1,1,1170.68
801,19,13,1,1,915.606
801,19,14,1,1,2218.38
801,19,15,1,1,779.813
801,19,16,1,1,986.686
801,19,17,1,1,948.052
801,19,18,1,1,1346.53
801,19,19,1,1,1000.45
801,19,20,1,1,1809.74
801,20,1,2,1,788.171
801,20,2,2,1,723.112
801,20,3,2,1,679.449
801,20,4,2,1,673.277
801,20,5,2,1,739.161
801,20,6,2,1,538.088
801,20,7,2,1,542.928
801,20,8,2,1,694.306
801,20,9,2,1,834.975
801,20,10,2,1,785.718
801,20,11,2,1,672.669
801,20,12,2,1,666.455
801,20,13,2,1,729.672
801,20,14,2,1,688.805
801,20,15,2,1,733.189
801,20,16,2,1,601.557
801,20,17,2,1,643.6
801,20,18,2,1,784.104
801,20,19,2,1,804.428
801,20,20,2,1,640.722
801,21,1,2,1,562.961
801,21,2,2,1,549.117
801,21,3,2,1,916.451
801,21,4,2,1,611.242
801,21,5,2,1,703.785
801,21,6,2,1,615.182
801,21,7,2,1,579.55
801,21,8,2,1,568.398
801,21,9,2,1,666.362
801,21,10,2,1,737.521
801,21,11,2,1,669.914
801,21,12,2,1,671.825
801,21,13,2,1,601.673
801,21,14,2,1,619.536
801,21,15,2,1,752.301
801,21,16,2,1,639.232
801,21,17,2,1,635.843
801,21,18,2,1,693.67
801,21,19,2,1,586.169
801,21,20,2,1,689.411
801,22,1,1,1,988.917
801,22,2,1,1,1016.74
801,22,3,1,1,938.386
801,22,4,1,1,920.822
801,22,5,1,1,810.007
801,22,6,1,1,965.59
801,22,7,1,1,991.485
801,22,8,1,1,893.99
801,22,9,1,1,1026.26
801,22,10,1,1,920.563
801,22,11,1,1,887.318
801,22,12,1,1,936.924
801,22,13,1,1,924.855
801,22,14,1,1,846.271
801,22,15,1,1,887.626
801,22,16,1,1,811.771
801,22,17,1,1,791.948
801,22,18,1,1,1254.89
801,22,19,1,1,1047.64
801,22,20,1,1,1016.78
801,23,1,1,1,1006.86
801,23,2,1,1,864.187
801,23,3,1,1,863.114
801,23,4,1,1,813.797
801,23,5,1,0,786.004
801,23,6,1,1,858.861
801,23,7,1,1,919.048
801,23,8,1,1,935.76
801,23,9,1,1,799.143
801,23,10,1,1,1032.61
801,23,11,1,1,777.723
801,23,12,1,1,877.462
801,23,13,1,1,639.55
801,23,14,1,1,1089.43
801,23,15,1,1,874.507
801,23,16,1,1,785.276
801,23,17,1,1,685.587
801,23,18,1,1,863.466
801,23,19,1,1,862.213
801,23,20,1,1,889.766
801,24,1,2,1,1736.81
801,24,2,2,1,611.229
801,24,3,2,1,687.885
801,24,4,2,1,617.733
801,24,5,2,1,750.44
801,24,6,2,1,493.443
801,24,7,2,1,641.6
801,24,8,2,1,774.735
801,24,9,2,1,787.159
801,24,10,2,1,690.032
801,24,11,2,1,702.51
801,24,12,2,1,667.056
801,24,13,2,1,874.167
801,24,14,2,1,680.969
801,24,15,2,1,578.92
801,24,16,2,1,759.58
801,24,17,2,1,566.585
801,24,18,2,1,496.646
801,24,19,2,1,629.62
801,24,20,2,1,676.73
801,25,1,2,1,636.571
801,25,2,2,1,694.495
801,25,3,2,1,669.572
801,25,4,2,1,679.525
801,25,5,2,1,601.395
801,25,6,2,0,603.373
801,25,7,2,1,694.595
801,25,8,2,1,795.691
801,25,9,2,1,565.183
801,25,10,2,1,623.27
801,25,11,2,1,707.907
801,25,12,2,1,621.719
801,25,13,2,1,522.249
801,25,14,2,0,484.581
801,25,15,2,1,659.721
801,25,16,2,1,592.353
801,25,17,2,1,791.616
801,25,18,2,1,646.612
801,25,19,2,1,704.431
801,25,20,2,1,647.732
801,26,1,1,1,1047.18
801,26,2,1,1,738.966
801,26,3,1,1,863.398
801,26,4,1,1,694.171
801,26,5,1,1,874.635
801,26,6,1,1,929.478
801,26,7,1,1,997.388
801,26,8,1,1,726.764
801,26,9,1,0,696.394
801,26,10,1,1,857.609
801,26,11,1,1,854.23
801,26,12,1,1,868.877
801,26,13,1,1,723.14
801,26,14,1,1,773.023
801,26,15,1,1,753.285
801,26,16,1,1,736.972
801,26,17,1,1,1047.98
801,26,18,1,1,747.842
801,26,19,1,1,754.096
801,26,20,1,1,809.801
801,27,1,1,1,1350.99
801,27,2,1,1,804.911
801,27,3,1,1,889.251
801,27,4,1,1,906.706
801,27,5,1,1,929.451
801,27,6,1,1,853.235
801,27,7,1,1,921.455
801,27,8,1,1,1090.84
801,27,9,1,1,886.548
801,27,10,1,1,751.957
801,27,11,1,1,1895.02
801,27,12,1,1,857.172
801,27,13,1,1,941.261
801,27,14,1,1,985.305
801,27,15,1,1,879.821
801,27,16,1,1,889.382
801,27,17,1,1,962.807
801,27,18,1,1,902.709
801,27,19,1,1,850.677
801,27,20,1,1,1046.82
801,28,1,2,1,660.448
801,28,2,2,1,635.776
801,28,3,2,1,602.96
801,28,4,2,1,671.555
801,28,5,2,1,553.575
801,28,6,2,1,648.816
801,28,7,2,1,621.307
801,28,8,2,1,538.049
801,28,9,2,0,638.809
801,28,10,2,1,578.549
801,28,11,2,1,735.433
801,28,12,2,1,531.777
801,28,13,2,1,654.013
801,28,14,2,1,666.298
801,28,15,2,1,809.656
801,28,16,2,1,619.204
801,28,17,2,1,679.864
801,28,18,2,1,705.746
801,28,19,2,1,552.291
801,28,20,2,1,738.843
801,29,1,2,1,2480.61
801,29,2,2,1,756.314
801,29,3,2,1,675.353
801,29,4,2,1,709.221
801,29,5,2,1,926.939
801,29,6,2,1,690.848
801,29,7,2,1,652.765
801,29,8,2,1,649.336
801,29,9,2,0,629.907
801,29,10,2,1,596.458
801,29,11,2,1,732.355
801,29,12,2,1,568.667
801,29,13,2,1,586.731
801,29,14,2,1,713.423
801,29,15,2,1,699.802
801,29,16,2,1,584.306
801,29,17,2,1,949
801,29,18,2,1,745.164
801,29,19,2,1,791.978
801,29,20,2,1,718.317
801,30,1,1,1,1160.41
801,30,2,1,1,897.358
801,30,3,1,1,893.477
801,30,4,1,1,1081.54
801,30,5,1,1,978.626
801,30,6,1,1,857.157
801,30,7,1,1,861.255
801,30,8,1,1,788.055
801,30,9,1,1,755.093
801,30,10,1,1,940.77
801,30,11,1,1,904.818
801,30,12,1,1,980.951
801,30,13,1,1,848.914
801,30,14,1,1,786.214
801,30,15,1,1,894.588
801,30,16,1,1,1034.54
801,30,17,1,1,891.896
801,30,18,1,1,821.202
801,30,19,1,1,977.598
801,30,20,1,1,1045.3
801,31,1,1,1,1077.66
801,31,2,1,1,934.917
801,31,3,1,1,834.811
801,31,4,1,1,828.326
801,31,5,1,1,867.211
801,31,6,1,1,828.626
801,31,7,1,1,662.139
801,31,8,1,1,749.239
801,31,9,1,1,668.342
801,31,10,1,1,819.642
801,31,11,1,1,671.699
801,31,12,1,1,1121.73
801,31,13,1,1,829.236
801,31,14,1,1,838.822
801,31,15,1,1,904.208
801,31,16,1,1,990.959
801,31,17,1,1,720.13
801,31,18,1,1,825.892
801,31,19,1,0,939.348
801,31,20,1,1,760.784
801,32,1,2,1,1597.8
801,32,2,2,1,693.726
801,32,3,2,1,762.282
801,32,4,2,1,1124.08
801,32,5,2,1,676.871
801,32,6,2,1,614.789
801,32,7,2,1,683.324
801,32,8,2,1,621.186
801,32,9,2,1,684.552
801,32,10,2,1,565.952
801,32,11,2,1,616.386
801,32,12,2,1,597.05
801,32,13,2,0,615.032
801,32,14,2,1,782.094
801,32,15,2,1,650.542
801,32,16,2,1,636.25
801,32,17,2,1,710.259
801,32,18,2,1,621.191
801,32,19,2,1,809.816
801,32,20,2,1,571.023
802,1,1,1,0,530.58
802,1,2,1,1,15208.7
802,1,3,1,1,1880.91
802,1,4,1,1,1480.31
802,1,5,1,1,1388.91
802,1,6,1,1,1462.8
802,1,7,1,1,1770.29
802,1,8,1,1,1329.89
802,1,9,1,1,1017.77
802,1,10,1,1,1566.34
802,1,11,1,1,1350.35
802,1,12,1,1,1486.98
802,1,13,1,1,1223.37
802,1,14,1,1,1101.37
802,1,15,1,1,929.127
802,1,16,1,1,1029
802,1,17,1,1,982.093
802,1,18,1,1,660.744
802,1,19,1,1,831.273
802,1,20,1,1,904.928
802,2,1,2,1,820.822
802,2,2,2,1,515.694
802,2,3,2,0,498.202
802,2,4,2,1,888.666
802,2,5,2,1,732.909
802,2,6,2,1,913.251
802,2,7,2,1,727.324
802,2,8,2,1,921.84
802,2,9,2,1,843.089
802,2,10,2,1,716.539
802,2,11,2,1,790.341
802,2,12,2,1,1165.38
802,2,13,2,1,614.111
802,2,14,2,1,669.576
802,2,15,2,1,690.741
802,2,16,2,1,583.045
802,2,17,2,1,692.542
802,2,18,2,1,728.326
802,2,19,2,1,986.937
802,2,20,2,1,982.593
802,3,1,2,1,834.117
802,3,2,2,1,584.978
802,3,3,2,1,733.599
802,3,4,2,1,759.332
802,3,5,2,1,638.417
802,3,6,2,1,723.029
802,3,7,2,1,634.103
802,3,8,2,1,638.686
802,3,9,2,1,811.385
802,3,10,2,1,676.941
802,3,11,2,1,700.148
802,3,12,2,1,768.741
802,3,13,2,1,631.636
802,3,14,2,1,799.038
802,3,15,2,1,634.531
802,3,16,2,1,766.011
802,3,17,2,1,636.93
802,3,18,2,1,727.684
802,3,19,2,1,1166.74
802,3,20,2,1,749.045
802,4,1,1,1,1463.63
802,4,2,1,1,1199.89
802,4,3,1,1,1194.51
802,4,4,1,1,869.027
802,4,5,1,1,982.578
802,4,6,1,1,894.942
802,4,7,1,1,816.37
802,4,8,1,1,967.29
802,4,9,1,1,829.887
802,4,10,1,1,1314.13
802,4,11,1,1,992.046
802,4,12,1,1,843.934
802,4,13,1,1,938.874
802,4,14,1,1,1278.79
802,4,15,1,1,1037.01
802,4,16,1,1,995.387
802,4,17,1,1,1071.39
802,4,18,1,1,1546.42
802,4,19,1,0,1731.22
802,4,20,1,1,1333.02
802,5,1,1,1,1337.52
802,5,2,1,1,860.799
802,5,3,1,1,1248.88
802,5,4,1,1,817.841
802,5,5,1,1,989.263
802,5,6,1,1,716.474
802,5,7,1,1,1382.13
802,5,8,1,1,1665.36
802,5,9,1,1,1110.72
802,5,10,1,1,1172.25
802,5,11,1,1,1029.93
802,5,12,1,1,1140.23
802,5,13,1,1,871.887
802,5,14,1,1,1201.31
802,5,15,1,1,938.077
802,5,16,1,1,990.2
802,5,17,1,1,1135.34
802,5,18,1,1,975.307
802,5,19,1,1,1107.24
802,5,20,1,1,1127
802,6,1,2,1,704.226
802,6,2,2,1,687.328
802,6,3,2,1,667.932
802,6,4,2,1,587.048
802,6,5,2,1,634.384
802,6,6,2,1,761.797
802,6,7,2,1,656.74
802,6,8,2,1,661.172
802,6,9,2,1,593.755
802,6,10,2,1,625.089
802,6,11,2,1,691.755
802,6,12,2,1,744.349
802,6,13,2,1,711.236
802,6,14,2,1,842.755
802,6,15,2,1,651.406
802,6,16,2,1,813.954
802,6,17,2,1,706.219
802,6,18,2,1,742.692
802,6,19,2,1,729.095
802,6,20,2,1,1021.51
802,7,1,2,1,798.214
802,7,2,2,1,775.803
802,7,3,2,1,774.873
802,7,4,2,1,683.102
802,7,5,2,1,780.943
802,7,6,2,1,691.85
802,7,7,2,1,864.265
802,7,8,2,1,700.416
802,7,9,2,1,689.064
802,7,10,2,1,730.751
802,7,11,2,1,683.579
802,7,12,2,1,969.722
802,7,13,2,1,803.032
802,7,14,2,1,742.643
802,7,15,2,1,694.322
802,7,16,2,1,794.805
802,7,17,2,1,691.878
802,7,18,2,1,597.232
802,7,19,2,1,763.655
802,7,20,2,1,693.26
802,8,1,1,1,1606.88
802,8,2,1,1,732.995
802,8,3,1,1,1084.12
802,8,4,1,1,983.727
802,8,5,1,1,827.634
802,8,6,1,1,797.128
802,8,7,1,1,814.726
802,8,8,1,1,786.999
802,8,9,1,1,817.951
802,8,10,1,1,1118.18
802,8,11,1,1,911.163
802,8,12,1,1,1005.87
802,8,13,1,1,951.062
802,8,14,1,1,1221.67
802,8,15,1,1,1553.17
802,8,16,1,1,1350.62
802,8,17,1,1,996.491
802,8,18,1,1,1005.71
802,8,19,1,1,1246.86
802,8,20,1,1,985.7
802,9,1,1,1,785.056
802,9,2,1,1,1134.07
802,9,3,1,1,841.543
802,9,4,1,1,1131
802,9,5,1,1,1404.74
802,9,6,1,1,1605.16
802,9,7,1,1,1013.19
802,9,8,1,1,1089.01
802,9,9,1,1,914.175
802,9,10,1,1,877.02
802,9,11,1,1,1307.06
802,9,12,1,1,1000.98
802,9,13,1,1,794.335
802,9,14,1,1,897.278
802,9,15,1,1,1061.23
802,9,16,1,1,795.594
802,9,17,1,1,1221.34
802,9,18,1,1,829.192
802,9,19,1,1,1332.02
802,9,20,1,1,876.59
802,10,1,2,1,779.565
802,10,2,2,1,479.859
802,10,3,2,1,450.22
802,10,4,2,1,671.053
802,10,5,2,1,590.397
802,10,6,2,1,693.549
802,10,7,2,1,613.602
802,10,8,2,1,666.119
802,10,9,2,1,588.037
802,10,10,2,1,625.422
802,10,11,2,1,728.529
802,10,12,2,1,762.374
802,10,13,2,1,623.407
802,10,14,2,1,792.372
802,10,15,2,1,627.916
802,10,16,2,1,776.445
802,10,17,2,1,696.984
802,10,18,2,1,654.567
802,10,19,2,1,535.445
802,10,20,2,1,580.234
802,11,1,2,1,694.266
802,11,2,2,1,671.414
802,11,3,2,1,587.058
802,11,4,2,1,659.136
802,11,5,2,1,596.152
802,11,6,2,1,742.154
802,11,7,2,1,698.57
802,11,8,2,1,921.674
802,11,9,2,1,763.016
802,11,10,2,1,754.723
802,11,11,2,1,729.23
802,11,12,2,1,765.51
802,11,13,2,1,647.179
802,11,14,2,1,697.82
802,11,15,2,1,606.333
802,11,16,2,1,636.669
802,11,17,2,1,1013.61
802,11,18,2,1,733.795
802,11,19,2,1,574.801
802,11,20,2,1,627.313
802,12,1,1,1,1413.59
802,12,2,1,1,853.059
802,12,3,1,1,802.05
802,12,4,1,1,962.822
802,12,5,1,1,878.843
802,12,6,1,1,884.814
802,12,7,1,1,870.317
802,12,8,1,1,1373.7
802,12,9,1,1,976.8
802,12,10,1,1,972.889
802,12,11,1,1,1086.12
802,12,12,1,1,982.703
802,12,13,1,1,1168.23
802,12,14,1,1,889.087
802,12,15,1,1,850.547
802,12,16,1,1,827.117
802,12,17,1,1,934.377
802,12,18,1,1,1066.49
802,12,19,1,1,990.231
802,12,20,1,1,980.854
802,13,1,1,1,1894.93
802,13,2,1,1,1057.05
802,13,3,1,1,812.797
802,13,4,1,1,921.079
802,13,5,1,1,914.365
802,13,6,1,1,891.427
802,13,7,1,1,1096.36
802,13,8,1,1,944.593
802,13,9,1,1,743.244
802,13,10,1,1,998.282
802,13,11,1,1,719.079
802,13,12,1,1,806.672
802,13,13,1,1,992.304
802,13,14,1,1,1057.35
802,13,15,1,1,807.747
802,13,16,1,1,935.461
802,13,17,1,1,851.436
802,13,18,1,1,1076.83
802,13,19,1,1,882.706
802,13,20,1,1,1028.82
802,14,1,2,1,571.571
802,14,2,2,1,504.453
802,14,3,2,1,719.804
802,14,4,2,1,601.582
802,14,5,2,1,547.817
802,14,6,2,1,595.036
802,14,7,2,1,497.723
802,14,8,2,1,567.376
802,14,9,2,1,640.414
802,14,10,2,1,553.3
802,14,11,2,1,491.494
802,14,12,2,1,621.597
802,14,13,2,1,716.903
802,14,14,2,1,643.029
802,14,15,2,1,655.661
802,14,16,2,1,740.147
802,14,17,2,1,596.922
802,14,18,2,1,683.347
802,14,19,2,1,805.259
802,14,20,2,1,694.799
802,15,1,2,1,686.467
802,15,2,2,1,558.337
802,15,3,2,1,668.274
802,15,4,2,1,542.728
802,15,5,2,1,694.076
802,15,6,2,1,730.665
802,15,7,2,1,1006.86
802,15,8,2,1,594.881
802,15,9,2,1,788.797
802,15,10,2,1,795.765
802,15,11,2,1,709.336
802,15,12,2,1,788.412
802,15,13,2,1,614.071
802,15,14,2,1,618.731
802,15,15,2,1,746.088
802,15,16,2,1,721.009
802,15,17,2,1,754.868
802,15,18,2,1,907.874
802,15,19,2,1,811.029
802,15,20,2,1,567.278
802,16,1,1,1,1060.48
802,16,2,1,1,888.416
802,16,3,1,1,828.461
802,16,4,1,1,733.97
802,16,5,1,1,909.104
802,16,6,1,1,787.896
802,16,7,1,1,736.649
802,16,8,1,1,1021.08
802,16,9,1,1,955.655
802,16,10,1,1,764.844
802,16,11,1,1,902.482
802,16,12,1,1,930.57
802,16,13,1,1,1038.63
802,16,14,1,1,767.676
802,16,15,1,1,801.368
802,16,16,1,1,979.001
802,16,17,1,1,1086.85
802,16,18,1,1,778.686
802,16,19,1,1,974.937
802,16,20,1,1,866.847
802,17,1,1,1,756.3
802,17,2,1,1,1118.04
802,17,3,1,1,910.412
802,17,4,1,1,925.851
802,17,5,1,1,974.687
802,17,6,1,1,947.052
802,17,7,1,1,828.312
802,17,8,1,1,739.268
802,17,9,1,1,1154.31
802,17,10,1,1,835.308
802,17,11,1,1,788.618
802,17,12,1,1,811.548
802,17,13,1,1,967.752
802,17,14,1,1,873.185
802,17,15,1,1,983.884
802,17,16,1,1,854.415
802,17,17,1,1,1050.69
802,17,18,1,1,875.729
802,17,19,1,1,882.516
802,17,20,1,1,843.927
802,18,1,2,1,785.812
802,18,2,2,1,744.95
802,18,3,2,1,645.893
802,18,4,2,1,623.844
802,18,5,2,1,540.45
802,18,6,2,1,425.188
802,18,7,2,0,430.347
802,18,8,2,1,751.659
802,18,9,2,1,630.869
802,18,10,2,1,806.122
802,18,11,2,1,599.681
802,18,12,2,1,607.119
802,18,13,2,1,659.078
802,18,14,2,1,695.81
802,18,15,2,1,756.261
802,18,16,2,1,566.408
802,18,17,2,1,582.609
802,18,18,2,1,627.26
802,18,19,2,1,666.603
802,18,20,2,1,689.665
802,19,1,2,1,1095.24
802,19,2,2,1,816.31
802,19,3,2,1,596.465
802,19,4,2,1,635.286
802,19,5,2,1,602.17
802,19,6,2,1,709.014
802,19,7,2,1,664.52
802,19,8,2,1,687.709
802,19,9,2,1,628.178
802,19,10,2,1,651.515
802,19,11,2,1,584.124
802,19,12,2,1,639.37
802,19,13,2,1,665.294
802,19,14,2,1,733.925
802,19,15,2,1,630.781
802,19,16,2,1,797.985
802,19,17,2,1,895.508
802,19,18,2,1,631.983
802,19,19,2,1,835.849
802,19,20,2,1,637.083
802,20,1,1,1,829.179
802,20,2,1,1,780.065
802,20,3,1,1,1128.35
802,20,4,1,1,819.991
802,20,5,1,1,1512.37
802,20,6,1,1,1197.79
802,20,7,1,1,862.536
802,20,8,1,1,885.314
802,20,9,1,1,1198.78
802,20,10,1,1,909.092
802,20,11,1,1,1371.69
802,20,12,1,1,846.917
802,20,13,1,1,892.822
802,20,14,1,1,947.524
802,20,15,1,1,1150.39
802,20,16,1,1,883.873
802,20,17,1,1,891.374
802,20,18,1,1,860.713
802,20,19,1,1,1832.93
802,20,20,1,1,853.383
802,21,1,1,1,801.379
802,21,2,1,1,832.326
802,21,3,1,1,727.313
802,21,4,1,1,683.593
802,21,5,1,1,733.493
802,21,6,1,1,729.875
802,21,7,1,1,982.213
802,21,8,1,1,962.295
802,21,9,1,1,1041.61
802,21,10,1,1,1338.64
802,21,11,1,1,765.826
802,21,12,1,1,1067.93
802,21,13,1,1,898.264
802,21,14,1,1,1813.86
802,21,15,1,1,792.657
802,21,16,1,1,751.616
802,21,17,1,1,926.685
802,21,18,1,1,1142.89
802,21,19,1,1,993.78
802,21,20,1,1,882.994
802,22,1,2,1,538.321
802,22,2,2,1,603.553
802,22,3,2,1,821.508
802,22,4,2,1,571.863
802,22,5,2,1,625.239
802,22,6,2,1,768.524
802,22,7,2,1,676.707
802,22,8,2,1,630.601
802,22,9,2,1,669.802
802,22,10,2,1,621.045
802,22,11,2,1,684.278
802,22,12,2,1,696.785
802,22,13,2,1,709.174
802,22,14,2,1,740.417
802,22,15,2,1,827.337
802,22,16,2,1,724.286
802,22,17,2,1,798.631
802,22,18,2,1,992.272
802,22,19,2,1,625.436
802,22,20,2,1,765.131
802,23,1,2,1,745.906
802,23,2,2,1,616.928
802,23,3,2,1,837.561
802,23,4,2,1,535.022
802,23,5,2,1,670.543
802,23,6,2,1,658.228
802,23,7,2,1,702.667
802,23,8,2,1,949.862
802,23,9,2,1,764.394
802,23,10,2,1,648.826
802,23,11,2,1,690.618
802,23,12,2,1,700.381
802,23,13,2,1,719.032
802,23,14,2,1,736.757
802,23,15,2,1,837.081
802,23,16,2,1,627.912
802,23,17,2,1,667.292
802,23,18,2,1,597.102
802,23,19,2,1,631.077
802,23,20,2,1,824.959
802,24,1,1,1,927.593
802,24,2,1,1,755.566
802,24,3,1,1,842.403
802,24,4,1,1,971.852
802,24,5,1,1,932.249
802,24,6,1,1,745.027
802,24,7,1,1,1164.58
802,24,8,1,1,960.125
802,24,9,1,1,841.377
802,24,10,1,1,882.929
802,24,11,1,1,1052.32
802,24,12,1,1,716.483
802,24,13,1,1,923.673
802,24,14,1,1,996.948
802,24,15,1,1,875.571
802,24,16,1,1,1040.41
802,24,17,1,1,854.908
802,24,18,1,1,835.098
802,24,19,1,1,1237.44
802,24,20,1,1,1003.61
802,25,1,1,0,828.474
802,25,2,1,1,1034.57
802,25,3,1,1,803.717
802,25,4,1,1,1015.85
802,25,5,1,1,1157.94
802,25,6,1,1,870.684
802,25,7,1,1,899.6
802,25,8,1,1,828.13
802,25,9,1,1,919.405
802,25,10,1,1,901.821
802,25,11,1,1,705.848
802,25,12,1,1,992.405
802,25,13,1,1,921.3
802,25,14,1,1,1243.39
802,25,15,1,1,916.181
802,25,16,1,1,861.552
802,25,17,1,1,783.701
802,25,18,1,1,1054.66
802,25,19,1,1,943.737
802,25,20,1,1,749.85
802,26,1,2,1,507.977
802,26,2,2,1,811.48
802,26,3,2,1,757.09
802,26,4,2,1,1003.13
802,26,5,2,1,484.366
802,26,6,2,1,809.157
802,26,7,2,1,565.52
802,26,8,2,1,551.655
802,26,9,2,1,673.606
802,26,10,2,1,666.826
802,26,11,2,1,682.576
802,26,12,2,1,700.464
802,26,13,2,1,825.339
802,26,14,2,1,733.212
802,26,15,2,1,913.67
802,26,16,2,1,666.94
802,26,17,2,1,722.217
802,26,18,2,1,838.544
802,26,19,2,1,600.043
802,26,20,2,1,786.098
802,27,1,2,1,888.816
802,27,2,2,1,658.3
802,27,3,2,1,678.827
802,27,4,2,1,816.646
802,27,5,2,1,860.962
802,27,6,2,1,793.146
802,27,7,2,1,700.495
802,27,8,2,1,1256.96
802,27,9,2,1,716.44
802,27,10,2,1,754.477
802,27,11,2,1,761.235
802,27,12,2,1,827.307
802,27,13,2,1,682.12
802,27,14,2,1,651.957
802,27,15,2,1,728.606
802,27,16,2,1,800.224
802,27,17,2,1,667.675
802,27,18,2,1,735.333
802,27,19,2,1,975.045
802,27,20,2,1,668.787
802,28,1,1,1,1169.62
802,28,2,1,1,805.84
802,28,3,1,1,783.487
802,28,4,1,1,963.776
802,28,5,1,1,1047.73
802,28,6,1,1,928.766
802,28,7,1,1,900.733
802,28,8,1,1,843.577
802,28,9,1,1,996.391
802,28,10,1,1,1078.34
802,28,11,1,1,911.214
802,28,12,1,1,1080.62
802,28,13,1,1,1601.52
802,28,14,1,1,977.693
802,28,15,1,1,757.647
802,28,16,1,1,879.264
802,28,17,1,1,920.712
802,28,18,1,1,1136.09
802,28,19,1,1,1035.84
802,28,20,1,1,1046.66
802,29,1,1,1,759.766
802,29,2,1,1,750.792
802,29,3,1,1,765.783
802,29,4,1,1,869.57
802,29,5,1,1,1028.29
802,29,6,1,1,906.856
802,29,7,1,1,748.199
802,29,8,1,1,923.985
802,29,9,1,1,824.012
802,29,10,1,1,1006.76
802,29,11,1,1,682.697
802,29,12,1,1,716.325
802,29,13,1,1,822.186
802,29,14,1,1,826.424
802,29,15,1,1,1157.77
802,29,16,1,1,843.044
802,29,17,1,1,796.543
802,29,18,1,1,850.582
802,29,19,1,1,846.754
802,29,20,1,1,792.586
802,30,1,2,1,1733.79
802,30,2,2,1,600.313
802,30,3,2,1,550.703
802,30,4,2,1,609.949
802,30,5,2,1,607.178
802,30,6,2,1,725.482
802,30,7,2,1,566.335
802,30,8,2,1,656.49
802,30,9,2,1,640.838
802,30,10,2,1,629.924
802,30,11,2,1,908.633
802,30,12,2,1,664.334
802,30,13,2,1,845.593
802,30,14,2,1,953.136
802,30,15,2,1,736.497
802,30,16,2,1,740.797
802,30,17,2,1,633.925
802,30,18,2,1,769.865
802,30,19,2,1,515.437
802,30,20,2,1,517.588
802,31,1,2,1,664.424
802,31,2,2,1,557.045
802,31,3,2,1,607.146
802,31,4,2,1,585.831
802,31,5,2,1,830.598
802,31,6,2,1,652.78
802,31,7,2,1,977.242
802,31,8,2,1,696.374
802,31,9,2,1,644.924
802,31,10,2,1,694.798
802,31,11,2,0,627.218
802,31,12,2,1,708.278
802,31,13,2,1,699.006
802,31,14,2,1,904.051
802,31,15,2,1,598.83
802,31,16,2,1,680.655
802,31,17,2,1,1154.52
802,31,18,2,1,659.493
802,31,19,2,1,711.981
802,31,20,2,1,719.009
802,32,1,1,1,929.916
802,32,2,1,1,782.015
802,32,3,1,1,788.987
802,32,4,1,1,859.848
802,32,5,1,1,1128.09
802,32,6,1,1,816.387
802,32,7,1,1,1245.25
802,32,8,1,1,984.631
802,32,9,1,1,927.053
802,32,10,1,1,1128.65
802,32,11,1,1,1101.98
802,32,12,1,1,1112.61
802,32,13,1,1,1084.21
802,32,14,1,1,1455.28
802,32,15,1,1,1452.62
802,32,16,1,1,1036.11
802,32,17,1,1,882.575
802,32,18,1,1,1579.92
802,32,19,1,1,804.713
802,32,20,1,1,1454.41
803,1,1,2,1,1585.26
803,1,2,2,1,918.67
803,1,3,2,1,1807.9
803,1,4,2,1,1007.58
803,1,5,2,1,856.808
803,1,6,2,1,679.726
803,1,7,2,1,1001.39
803,1,8,2,1,1282.65
803,1,9,2,1,1317.97
803,1,10,2,0,3878.48
803,1,11,2,1,3040.65
803,1,12,2,1,710.527
803,1,13,2,1,773.5
803,1,14,2,1,681.99
803,1,15,2,1,651.697
803,1,16,2,1,1000.38
803,1,17,2,1,777.017
803,1,18,2,1,1053.16
803,1,19,2,1,649.542
803,1,20,2,1,758.141
803,2,1,1,1,2998.73
803,2,2,1,1,2361.46
803,2,3,1,1,1127.96
803,2,4,1,1,955.489
803,2,5,1,1,1028.8
803,2,6,1,1,1395.3
803,2,7,1,1,2403.81
803,2,8,1,1,1268.84
803,2,9,1,0,3410.85
803,2,10,1,1,2385.37
803,2,11,1,1,818.427
803,2,12,1,1,1257.2
803,2,13,1,1,812.577
803,2,14,1,0,2086.4
803,2,15,1,1,1450.58
803,2,16,1,1,1317.42
803,2,17,1,1,997.991
803,2,18,1,1,1767.07
803,2,19,1,1,728.905
803,2,20,1,1,1093.86
803,3,1,1,1,5931.22
803,3,2,1,1,1354.19
803,3,3,1,1,995.253
803,3,4,1,1,1228.33
803,3,5,1,1,866.6
803,3,6,1,1,833.22
803,3,7,1,1,1176.14
803,3,8,1,1,1041
803,3,9,1,1,1146.16
803,3,10,1,1,1219.14
803,3,11,1,1,945.086
803,3,12,1,1,823.926
803,3,13,1,1,1062.79
803,3,14,1,1,1109.12
803,3,15,1,1,840.758
803,3,16,1,1,930.442
803,3,17,1,1,798.266
803,3,18,1,0,949.277
803,3,19,1,1,837.792
803,3,20,1,1,783.414
803,4,1,2,1,917.952
803,4,2,2,1,1015.57
803,4,3,2,1,808.58
803,4,4,2,1,772.798
803,4,5,2,1,713.036
803,4,6,2,1,658.762
803,4,7,2,1,703.784
803,4,8,2,1,678.474
803,4,9,2,1,680.302
803,4,10,2,1,554.173
803,4,11,2,1,657.537
803,4,12,2,1,742.267
803,4,13,2,1,618.543
803,4,14,2,1,657.809
803,4,15,2,1,662.447
803,4,16,2,1,781.503
803,4,17,2,1,644.433
803,4,18,2,1,688.988
803,4,19,2,1,538.774
803,4,20,2,1,663.683
803,5,1,2,1,774.346
803,5,2,2,1,695.782
803,5,3,2,1,614.983
803,5,4,2,1,651.554
803,5,5,2,1,608.086
803,5,6,2,1,636.728
803,5,7,2,1,539.955
803,5,8,2,1,723.438
803,5,9,2,1,652.757
803,5,10,2,1,527.068
803,5,11,2,1,686.538
803,5,12,2,1,736.476
803,5,13,2,1,698.181
803,5,14,2,1,715.837
803,5,15,2,1,560.497
803,5,16,2,1,615.868
803,5,17,2,1,553.892
803,5,18,2,1,630.676
803,5,19,2,1,595.254
803,5,20,2,1,490.591
803,6,1,1,1,1325.81
803,6,2,1,1,875.877
803,6,3,1,1,866.656
803,6,4,1,1,942.769
803,6,5,1,1,1490.77
803,6,6,1,1,891.064
803,6,7,1,1,857.881
803,6,8,1,1,851.43
803,6,9,1,1,876.89
803,6,10,1,1,833.01
803,6,11,1,1,1029.32
803,6,12,1,1,777.12
803,6,13,1,1,730.962
803,6,14,1,1,913.986
803,6,15,1,1,902.104
803,6,16,1,1,722.008
803,6,17,1,1,985.168
803,6,18,1,1,1013.13
803,6,19,1,1,1155.79
803,6,20,1,1,809.892
803,7,1,1,1,1118.51
803,7,2,1,1,786.348
803,7,3,1,1,846.634
803,7,4,1,1,797.481
803,7,5,1,0,996.659
803,7,6,1,1,922.382
803,7,7,1,1,920.972
803,7,8,1,1,887.903
803,7,9,1,1,750.672
803,7,10,1,1,938.88
803,7,11,1,1,1020.41
803,7,12,1,1,661.552
803,7,13,1,1,926.759
803,7,14,1,1,808.807
803,7,15,1,1,818.193
803,7,16,1,1,750.593
803,7,17,1,1,827.13
803,7,18,1,1,887.177
803,7,19,1,1,973.888
803,7,20,1,1,711.4
803,8,1,2,1,901.446
803,8,2,2,1,729.775
803,8,3,2,1,755.369
803,8,4,2,1,679.866
803,8,5,2,1,702.975
803,8,6,2,1,728.822
803,8,7,2,1,663.742
803,8,8,2,1,636.571
803,8,9,2,1,571.705
803,8,10,2,1,619.128
803,8,11,2,1,535.747
803,8,12,2,1,703.389
803,8,13,2,1,769.108
803,8,14,2,1,552.166
803,8,15,2,1,540.962
803,8,16,2,1,625.584
803,8,17,2,1,678.41
803,8,18,2,1,533.566
803,8,19,2,1,629.012
803,8,20,2,1,529.134
803,9,1,2,1,793.81
803,9,2,2,1,1547.57
803,9,3,2,1,573.576
803,9,4,2,1,605.79
803,9,5,2,1,706.477
803,9,6,2,1,579.803
803,9,7,2,1,617.008
803,9,8,2,1,560.489
803,9,9,2,1,735.863
803,9,10,2,1,654.927
803,9,11,2,1,544.849
803,9,12,2,1,674.439
803,9,13,2,1,554.286
803,9,14,2,1,590.937
803,9,15,2,1,619.675
803,9,16,2,1,600.32
803,9,17,2,1,692.986
803,9,18,2,1,518.767
803,9,19,2,1,739.815
803,9,20,2,1,730.729
803,10,1,1,1,1011.06
803,10,2,1,1,868.844
803,10,3,1,1,910.406
803,10,4,1,1,877.173
803,10,5,1,1,1075.95
803,10,6,1,1,919.692
803,10,7,1,1,822.409
803,10,8,1,1,842.725
803,10,9,1,1,793.681
803,10,10,1,1,856.504
803,10,11,1,1,1057.93
803,10,12,1,1,1091.01
803,10,13,1,1,780.352
803,10,14,1,1,933.851
803,10,15,1,1,839.224
803,10,16,1,1,1254.13
803,10,17,1,1,966.835
803,10,18,1,1,813.412
803,10,19,1,1,871.025
803,10,20,1,1,856.652
803,11,1,1,1,855.382
803,11,2,1,1,904.97
803,11,3,1,1,698.398
803,11,4,1,1,785.625
803,11,5,1,1,909.9
803,11,6,1,1,1079.48
803,11,7,1,1,827.166
803,11,8,1,1,975.365
803,11,9,1,1,928.611
803,11,10,1,1,807.453
803,11,11,1,1,864.952
803,11,12,1,1,874.508
803,11,13,1,1,857.227
803,11,14,1,1,730.713
803,11,15,1,1,771.988
803,11,16,1,1,899.546
803,11,17,1,1,799.572
803,11,18,1,1,1099.99
803,11,19,1,1,885.029
803,11,20,1,1,734.538
803,12,1,2,1,663.244
803,12,2,2,1,985.203
803,12,3,2,1,669.136
803,12,4,2,1,585.854
803,12,5,2,1,702.413
803,12,6,2,1,618.253
803,12,7,2,1,734.928
803,12,8,2,1,681.239
803,12,9,2,1,653.955
803,12,10,2,1,735.841
803,12,11,2,1,958.814
803,12,12,2,1,701.511
803,12,13,2,1,698.039
803,12,14,2,1,910.444
803,12,15,2,1,672.073
803,12,16,2,1,663.03
803,12,17,2,1,672.946
803,12,18,2,1,621.506
803,12,19,2,1,588.89
803,12,20,2,1,689.612
803,13,1,2,1,818.733
803,13,2,2,1,668.258
803,13,3,2,1,632.836
803,13,4,2,1,565.645
803,13,5,2,1,607.476
803,13,6,2,1,497.407
803,13,7,2,1,617.061
803,13,8,2,1,584.458
803,13,9,2,1,594.525
803,13,10,2,1,439.142
803,13,11,2,1,630.816
803,13,12,2,1,507.446
803,13,13,2,1,752.391
803,13,14,2,1,564.71
803,13,15,2,1,539.585
803,13,16,2,1,744.922
803,13,17,2,1,658.745
803,13,18,2,1,948.623
803,13,19,2,1,472.024
803,13,20,2,1,464.187
803,14,1,1,1,840.05
803,14,2,1,1,774.975
803,14,3,1,1,704.759
803,14,4,1,1,817.885
803,14,5,1,1,1286.83
803,14,6,1,1,1004.77
803,14,7,1,1,1109.96
803,14,8,1,1,758.9
803,14,9,1,1,1430.01
803,14,10,1,1,909.827
803,14,11,1,1,917.265
803,14,12,1,1,811.883
803,14,13,1,1,709.446
803,14,14,1,1,764.593
803,14,15,1,1,707.629
803,14,16,1,1,1296.1
803,14,17,1,1,856.849
803,14,18,1,1,1194.2
803,14,19,1,0,765.776
803,14,20,1,1,726.769
803,15,1,1,1,837.643
803,15,2,1,1,793.97
803,15,3,1,1,1070.23
803,15,4,1,1,738.011
803,15,5,1,1,843.813
803,15,6,1,1,786.709
803,15,7,1,1,820.324
803,15,8,1,1,805.898
803,15,9,1,1,644.874
803,15,10,1,1,857.543
803,15,11,1,1,834.411
803,15,12,1,1,825.87
803,15,13,1,1,795.438
803,15,14,1,1,895.84
803,15,15,1,1,881.238
803,15,16,1,1,781.549
803,15,17,1,1,743.066
803,15,18,1,1,899.486
803,15,19,1,1,1026.25
803,15,20,1,1,854.308
803,16,1,2,1,640.137
803,16,2,2,1,703.423
803,16,3,2,1,745.276
803,16,4,2,1,797.632
803,16,5,2,1,1401.98
803,16,6,2,1,751.807
803,16,7,2,1,620.282
803,16,8,2,1,693.659
803,16,9,2,1,653.337
803,16,10,2,1,575.286
803,16,11,2,1,640.778
803,16,12,2,1,592.03
803,16,13,2,1,797.294
803,16,14,2,1,737.716
803,16,15,2,1,699.289
803,16,16,2,1,645.216
803,16,17,2,1,740.44
803,16,18,2,1,568.839
803,16,19,2,1,418.901
803,16,20,2,1,517.248
803,17,1,2,1,629.088
803,17,2,2,1,705.674
803,17,3,2,1,694.12
803,17,4,2,1,680.052
803,17,5,2,1,588.493
803,17,6,2,1,561.252
803,17,7,2,1,510.061
803,17,8,2,1,658.946
803,17,9,2,1,546.187
803,17,10,2,1,566.977
803,17,11,2,1,638.442
803,17,12,2,1,539.088
803,17,13,2,1,615.717
803,17,14,2,1,649.856
803,17,15,2,1,553.19
803,17,16,2,1,661.784
803,17,17,2,1,671.697
803,17,18,2,1,404.409
803,17,19,2,1,732.136
803,17,20,2,1,565.8
803,18,1,1,1,871.925
803,18,2,1,1,788.135
803,18,3,1,1,935.744
803,18,4,1,1,745.76
803,18,5,1,1,886.225
803,18,6,1,1,1154.35
803,18,7,1,1,717.957
803,18,8,1,1,1013.27
803,18,9,1,1,798.279
803,18,10,1,1,818.659
803,18,11,1,1,966.809
803,18,12,1,1,744.001
803,18,13,1,1,924.42
803,18,14,1,0,638.015
803,18,15,1,1,847.042
803,18,16,1,1,936.53
803,18,17,1,1,737.97
803,18,18,1,1,704.917
803,18,19,1,1,901.657
803,18,20,1,1,759.042
803,19,1,1,1,878.002
803,19,2,1,1,866.165
803,19,3,1,1,827.781
803,19,4,1,1,1016.07
803,19,5,1,1,761.155
803,19,6,1,1,832.272
803,19,7,1,1,884.473
803,19,8,1,1,627.244
803,19,9,1,1,701.183
803,19,10,1,1,751.074
803,19,11,1,1,715.538
803,19,12,1,1,917.31
803,19,13,1,1,817.465
803,19,14,1,1,816.285
803,19,15,1,1,706.004
803,19,16,1,1,707.712
803,19,17,1,1,885.56
803,19,18,1,1,966.954
803,19,19,1,1,648.314
803,19,20,1,1,634.238
803,20,1,2,1,1800.45
803,20,2,2,1,557.572
803,20,3,2,1,642.288
803,20,4,2,1,641.706
803,20,5,2,1,494.155
803,20,6,2,1,717.749
803,20,7,2,1,546.302
803,20,8,2,1,623.05
803,20,9,2,1,737.078
803,20,10,2,1,666.674
803,20,11,2,1,631.334
803,20,12,2,1,467.923
803,20,13,2,1,438.214
803,20,14,2,1,379.4
803,20,15,2,1,885.749
803,20,16,2,1,588.668
803,20,17,2,1,574.635
803,20,18,2,1,696.661
803,20,19,2,1,717.194
803,20,20,2,1,617.616
803,21,1,2,1,680.099
803,21,2,2,1,511.165
803,21,3,2,1,560.855
803,21,4,2,1,624.846
803,21,5,2,1,610.759
803,21,6,2,1,498.357
803,21,7,2,1,513.675
803,21,8,2,1,550.569
803,21,9,2,1,515.35
803,21,10,2,1,552.305
803,21,11,2,1,757.034
803,21,12,2,1,521.364
803,21,13,2,1,411.731
803,21,14,2,1,683.166
803,21,15,2,1,621.027
803,21,16,2,1,585.766
803,21,17,2,1,544.955
803,21,18,2,1,600.488
803,21,19,2,1,634.476
803,21,20,2,1,708.402
803,22,1,1,1,1037.69
803,22,2,1,1,694.75
803,22,3,1,1,632.634
803,22,4,1,1,655.975
803,22,5,1,1,809.908
803,22,6,1,1,829.919
803,22,7,1,1,726.78
803,22,8,1,1,753.27
803,22,9,1,1,848.356
803,22,10,1,1,724.508
803,22,11,1,1,672.863
803,22,12,1,1,818.726
803,22,13,1,1,799
803,22,14,1,1,832.561
803,22,15,1,1,730.067
803,22,16,1,1,899.953
803,22,17,1,1,882.55
803,22,18,1,1,929.12
803,22,19,1,1,861.269
803,22,20,1,1,801.488
803,23,1,1,1,850.54
803,23,2,1,1,820.098
803,23,3,1,1,1120.34
803,23,4,1,1,737.261
803,23,5,1,1,781.695
803,23,6,1,1,860.67
803,23,7,1,1,688.923
803,23,8,1,0,801.997
803,23,9,1,1,840.72
803,23,10,1,1,802.251
803,23,11,1,1,918.581
803,23,12,1,1,831.937
803,23,13,1,1,918.719
803,23,14,1,1,1040.31
803,23,15,1,1,649.461
803,23,16,1,1,701.82
803,23,17,1,1,1020.74
803,23,18,1,1,755.449
803,23,19,1,1,754.388
803,23,20,1,1,689.582
803,24,1,2,1,725.405
803,24,2,2,1,585.96
803,24,3,2,1,593.219
803,24,4,2,1,520.541
803,24,5,2,1,578.222
803,24,6,2,1,530.079
803,24,7,2,1,556.329
803,24,8,2,1,518.316
803,24,9,2,1,528.475
803,24,10,2,1,546.595
803,24,11,2,1,618.081
803,24,12,2,1,798.74
803,24,13,2,1,592.26
803,24,14,2,1,607.581
803,24,15,2,1,676.216
803,24,16,2,1,590.009
803,24,17,2,1,661.514
803,24,18,2,1,977.918
803,24,19,2,1,525.833
803,24,20,2,1,624.11
803,25,1,2,1,569.992
803,25,2,2,1,718.82
803,25,3,2,1,632.533
803,25,4,2,1,575.745
803,25,5,2,1,676.479
803,25,6,2,1,619.622
803,25,7,2,1,552.277
803,25,8,2,1,578.363
803,25,9,2,1,545.659
803,25,10,2,1,481.256
803,25,11,2,1,555.344
803,25,12,2,1,549.628
803,25,13,2,1,508.823
803,25,14,2,1,692.372
803,25,15,2,1,550.192
803,25,16,2,1,432.216
803,25,17,2,1,439.834
803,25,18,2,1,556.776
803,25,19,2,1,599.01
803,25,20,2,1,520.9
803,26,1,1,1,710.235
803,26,2,1,1,637.379
803,26,3,1,1,687.222
803,26,4,1,1,1265.1
803,26,5,1,1,871.029
803,26,6,1,0,853.858
803,26,7,1,1,809.19
803,26,8,1,1,924.868
803,26,9,1,1,910.993
803,26,10,1,1,885.614
803,26,11,1,1,641.694
803,26,12,1,1,915.663
803,26,13,1,1,789.231
803,26,14,1,1,819.987
803,26,15,1,1,730.855
803,26,16,1,1,719.063
803,26,17,1,1,798.485
803,26,18,1,1,823.907
803,26,19,1,1,838.736
803,26,20,1,1,760.347
803,27,1,1,1,797.496
803,27,2,1,1,711.071
803,27,3,1,1,1086.18
803,27,4,1,1,791.136
803,27,5,1,1,942.1
803,27,6,1,1,890.109
803,27,7,1,1,902.201
803,27,8,1,1,892.939
803,27,9,1,1,805.755
803,27,10,1,1,770.626
803,27,11,1,1,782.952
803,27,12,1,1,845.321
803,27,13,1,1,1135.26
803,27,14,1,1,829.618
803,27,15,1,1,780.366
803,27,16,1,1,856.189
803,27,17,1,1,911.641
803,27,18,1,0,678.239
803,27,19,1,1,859.917
803,27,20,1,1,1224.72
803,28,1,2,1,789.925
803,28,2,2,1,532.643
803,28,3,2,1,529.368
803,28,4,2,1,582.313
803,28,5,2,1,634.899
803,28,6,2,1,684.766
803,28,7,2,1,537.252
803,28,8,2,1,502.088
803,28,9,2,1,645.548
803,28,10,2,1,490.111
803,28,11,2,1,599.132
803,28,12,2,1,544.947
803,28,13,2,1,669.757
803,28,14,2,1,828.969
803,28,15,2,1,643.812
803,28,16,2,1,607.787
803,28,17,2,1,621.103
803,28,18,2,1,660.22
803,28,19,2,1,480.876
803,28,20,2,1,675.046
803,29,1,2,1,605.755
803,29,2,2,1,503.783
803,29,3,2,1,607.35
803,29,4,2,1,601.329
803,29,5,2,1,563.235
803,29,6,2,1,573.275
803,29,7,2,1,674.126
803,29,8,2,1,513.232
803,29,9,2,1,459.422
803,29,10,2,1,632.229
803,29,11,2,1,655.626
803,29,12,2,1,657.448
803,29,13,2,1,638.113
803,29,14,2,1,503.945
803,29,15,2,1,535.612
803,29,16,2,1,748.182
803,29,17,2,1,515.321
803,29,18,2,1,589.422
803,29,19,2,1,644.747
803,29,20,2,1,569.201
803,30,1,1,1,784.324
803,30,2,1,1,815.834
803,30,3,1,1,804.106
803,30,4,1,1,837.663
803,30,5,1,1,1055.25
803,30,6,1,1,930.983
803,30,7,1,1,692.279
803,30,8,1,1,749.623
803,30,9,1,1,799.691
803,30,10,1,1,841.343
803,30,11,1,1,794.938
803,30,12,1,1,889.851
803,30,13,1,1,709.89
803,30,14,1,1,871.584
803,30,15,1,1,902.548
803,30,16,1,1,997.351
803,30,17,1,1,790.269
803,30,18,1,1,725.371
803,30,19,1,1,775.016
803,30,20,1,1,811.41
803,31,1,1,1,816.378
803,31,2,1,1,799.237
803,31,3,1,1,755.478
803,31,4,1,1,813.193
803,31,5,1,1,813.84
803,31,6,1,1,826.033
803,31,7,1,1,768.912
803,31,8,1,1,789.198
803,31,9,1,1,836.165
803,31,10,1,1,821.65
803,31,11,1,1,740.554
803,31,12,1,1,739.534
803,31,13,1,1,720.096
803,31,14,1,1,649.765
803,31,15,1,1,750.263
803,31,16,1,1,829.328
803,31,17,1,1,708.187
803,31,18,1,1,731.301
803,31,19,1,1,711.729
803,31,20,1,1,790.889
803,32,1,2,1,496.608
803,32,2,2,1,560.08
803,32,3,2,1,522.14
803,32,4,2,1,635.72
803,32,5,2,1,523.02
803,32,6,2,1,637.049
803,32,7,2,1,559.69
803,32,8,2,1,564.297
803,32,9,2,1,598.35
803,32,10,2,1,632.479
803,32,11,2,1,546.283
803,32,12,2,1,665.712
803,32,13,2,1,576.906
803,32,14,2,1,613.595
803,32,15,2,1,626.255
803,32,16,2,1,793.809
803,32,17,2,1,568.489
803,32,18,2,0,581.161
803,32,19,2,1,574.76
803,32,20,2,1,659.176
804,1,1,1,1,1777.91
804,1,2,1,1,1364.15
804,1,3,1,1,1828.73
804,1,4,1,1,1057.69
804,1,5,1,1,872.021
804,1,6,1,1,822.886
804,1,7,1,1,891.22
804,1,8,1,0,1799.27
804,1,9,1,1,941.574
804,1,10,1,1,1089.28
804,1,11,1,1,837.071
804,1,12,1,1,1494.71
804,1,13,1,1,1511.12
804,1,14,1,1,1748.53
804,1,15,1,1,953.435
804,1,16,1,1,792.349
804,1,17,1,1,889.801
804,1,18,1,1,845.455
804,1,19,1,1,706.1
804,1,20,1,1,1129.16
804,2,1,2,1,1743.72
804,2,2,2,1,637.482
804,2,3,2,1,591.409
804,2,4,2,1,534.868
804,2,5,2,1,657.007
804,2,6,2,1,445.446
804,2,7,2,1,495.738
804,2,8,2,1,444.562
804,2,9,2,1,615.024
804,2,10,2,1,539.528
804,2,11,2,1,450.902
804,2,12,2,1,351.932
804,2,13,2,0,399.59
804,2,14,2,1,596.076
804,2,15,2,0,422.031
804,2,16,2,1,664.229
804,2,17,2,1,676.719
804,2,18,2,1,662.62
804,2,19,2,1,683.093
804,2,20,2,1,500.119
804,3,1,2,1,800.454
804,3,2,2,1,500.72
804,3,3,2,1,596.297
804,3,4,2,1,718.282
804,3,5,2,1,637.334
804,3,6,2,1,676.726
804,3,7,2,1,582.475
804,3,8,2,0,429.953
804,3,9,2,1,672.016
804,3,10,2,1,561.741
804,3,11,2,1,571.837
804,3,12,2,0,472.73
804,3,13,2,1,722.741
804,3,14,2,1,716.592
804,3,15,2,1,715.47
804,3,16,2,1,685.355
804,3,17,2,1,559.034
804,3,18,2,1,566.622
804,3,19,2,1,839.979
804,3,20,2,1,657.578
804,4,1,1,1,895.252
804,4,2,1,1,883.482
804,4,3,1,1,772.922
804,4,4,1,1,969.16
804,4,5,1,1,826.354
804,4,6,1,0,1257.25
804,4,7,1,1,1337.81
804,4,8,1,1,1148.5
804,4,9,1,1,963.406
804,4,10,1,1,1364.64
804,4,11,1,1,970.493
804,4,12,1,1,901.867
804,4,13,1,1,860.932
804,4,14,1,1,848.579
804,4,15,1,1,1061.23
804,4,16,1,1,1259
804,4,17,1,1,857.709
804,4,18,1,1,928.469
804,4,19,1,1,865.876
804,4,20,1,1,1441.07
804,5,1,1,1,1846.92
804,5,2,1,1,830.575
804,5,3,1,1,912.142
804,5,4,1,1,1022.8
804,5,5,1,1,741.363
804,5,6,1,1,1116.45
804,5,7,1,1,826.681
804,5,8,1,1,1289.66
804,5,9,1,1,988.791
804,5,10,1,1,870.075
804,5,11,1,1,892.876
804,5,12,1,1,982.396
804,5,13,1,1,1018.2
804,5,14,1,1,968.642
804,5,15,1,0,980.633
804,5,16,1,1,906.477
804,5,17,1,1,801.197
804,5,18,1,1,970.718
804,5,19,1,1,1238.84
804,5,20,1,1,964.899
804,6,1,2,1,637.143
804,6,2,2,1,959.356
804,6,3,2,1,568.402
804,6,4,2,0,546.546
804,6,5,2,0,551.13
804,6,6,2,0,619.611
804,6,7,2,1,1442.8
804,6,8,2,1,594.991
804,6,9,2,1,669.154
804,6,10,2,1,540.276
804,6,11,2,1,662.27
804,6,12,2,1,557.54
804,6,13,2,1,471.578
804,6,14,2,1,679.166
804,6,15,2,1,701.744
804,6,16,2,1,842.819
804,6,17,2,0,497.615
804,6,18,2,1,657.004
804,6,19,2,1,677.439
804,6,20,2,1,575.374
804,7,1,2,1,895.927
804,7,2,2,1,694.599
804,7,3,2,1,602.938
804,7,4,2,1,589.043
804,7,5,2,1,748.304
804,7,6,2,1,659.403
804,7,7,2,1,631.882
804,7,8,2,1,615.285
804,7,9,2,1,579.87
804,7,10,2,1,616.635
804,7,11,2,1,575.75
804,7,12,2,1,860.539
804,7,13,2,1,683.299
804,7,14,2,1,661.177
804,7,15,2,1,665.802
804,7,16,2,1,579.45
804,7,17,2,1,776.168
804,7,18,2,1,687.085
804,7,19,2,1,680.999
804,7,20,2,1,618.75
804,8,1,1,1,1095.6
804,8,2,1,1,901.951
804,8,3,1,1,1052.68
804,8,4,1,1,824.385
804,8,5,1,1,844.593
804,8,6,1,1,726.194
804,8,7,1,1,1039.94
804,8,8,1,1,1734.43
804,8,9,1,1,1627.63
804,8,10,1,1,1251.43
804,8,11,1,1,1126.86
804,8,12,1,1,866.409
804,8,13,1,1,873.246
804,8,14,1,1,1202.69
804,8,15,1,1,1203.51
804,8,16,1,1,918.907
804,8,17,1,1,1304.26
804,8,18,1,1,942.175
804,8,19,1,1,834.235
804,8,20,1,1,1019.68
804,9,1,1,1,844.599
804,9,2,1,1,768.908
804,9,3,1,1,1357.18
804,9,4,1,1,981.731
804,9,5,1,1,817.564
804,9,6,1,1,885.879
804,9,7,1,1,737.92
804,9,8,1,1,792.965
804,9,9,1,1,1167.9
804,9,10,1,1,896.781
804,9,11,1,1,788.94
804,9,12,1,1,827.924
804,9,13,1,1,1362.64
804,9,14,1,1,1019.22
804,9,15,1,1,935.1
804,9,16,1,1,805.709
804,9,17,1,1,1057.89
804,9,18,1,1,1077.67
804,9,19,1,1,972.07
804,9,20,1,1,1208.03
804,10,1,2,1,552.17
804,10,2,2,1,434.266
804,10,3,2,1,458.042
804,10,4,2,1,502.926
804,10,5,2,1,627.811
804,10,6,2,1,579.086
804,10,7,2,1,687.73
804,10,8,2,1,649.578
804,10,9,2,0,542.071
804,10,10,2,1,732.686
804,10,11,2,1,897.204
804,10,12,2,1,663.933
804,10,13,2,1,583.17
804,10,14,2,1,741.81
804,10,15,2,1,693.589
804,10,16,2,1,522.061
804,10,17,2,1,627.926
804,10,18,2,1,715.353
804,10,19,2,1,618.673
804,10,20,2,1,697.189
804,11,1,2,1,712.092
804,11,2,2,1,407.29
804,11,3,2,1,649.548
804,11,4,2,1,638.018
804,11,5,2,1,607.913
804,11,6,2,1,532.496
804,11,7,2,1,617.3
804,11,8,2,1,830.056
804,11,9,2,1,532.816
804,11,10,2,1,593.606
804,11,11,2,0,640.922
804,11,12,2,1,1024.27
804,11,13,2,1,734.609
804,11,14,2,1,624.188
804,11,15,2,1,607.692
804,11,16,2,1,596.251
804,11,17,2,1,547.692
804,11,18,2,1,562.98
804,11,19,2,1,668.476
804,11,20,2,1,628.252
804,12,1,1,1,863.728
804,12,2,1,1,924.108
804,12,3,1,1,853.44
804,12,4,1,1,769.503
804,12,5,1,1,1029.82
804,12,6,1,1,980.292
804,12,7,1,1,776.214
804,12,8,1,1,972.55
804,12,9,1,1,944.445
804,12,10,1,0,1116.49
804,12,11,1,1,863.942
804,12,12,1,1,838.794
804,12,13,1,1,965.649
804,12,14,1,1,737.481
804,12,15,1,1,1008.61
804,12,16,1,1,1145.73
804,12,17,1,1,1232.17
804,12,18,1,1,816.74
804,12,19,1,1,1045.05
804,12,20,1,1,950.326
804,13,1,1,1,854.546
804,13,2,1,1,837.418
804,13,3,1,1,855.013
804,13,4,1,1,984.386
804,13,5,1,1,764.328
804,13,6,1,1,904.694
804,13,7,1,1,1095.47
804,13,8,1,1,819.027
804,13,9,1,1,943.343
804,13,10,1,1,941.918
804,13,11,1,1,753.99
804,13,12,1,1,1024.96
804,13,13,1,1,871.514
804,13,14,1,1,888.944
804,13,15,1,1,842.3
804,13,16,1,1,862.668
804,13,17,1,1,861.362
804,13,18,1,1,721.471
804,13,19,1,1,987.221
804,13,20,1,1,769.889
804,14,1,2,1,911.123
804,14,2,2,1,613.881
804,14,3,2,1,610.571
804,14,4,2,1,591.146
804,14,5,2,1,758.498
804,14,6,2,1,677.492
804,14,7,2,1,695.416
804,14,8,2,1,641.217
804,14,9,2,1,715.078
804,14,10,2,1,602.198
804,14,11,2,1,702.801
804,14,12,2,1,574.022
804,14,13,2,1,626.625
804,14,14,2,1,809.938
804,14,15,2,1,614.133
804,14,16,2,1,541.508
804,14,17,2,1,684.819
804,14,18,2,1,607.018
804,14,19,2,1,632.636
804,14,20,2,1,634.562
804,15,1,2,1,576.121
804,15,2,2,1,597.397
804,15,3,2,1,740.251
804,15,4,2,1,659.414
804,15,5,2,1,775.821
804,15,6,2,1,740.258
804,15,7,2,1,723.152
804,15,8,2,1,741.045
804,15,9,2,1,683.948
804,15,10,2,1,781.771
804,15,11,2,1,562.122
804,15,12,2,1,684.291
804,15,13,2,1,742.001
804,15,14,2,1,661.029
804,15,15,2,1,561.685
804,15,16,2,1,643.687
804,15,17,2,1,797.566
804,15,18,2,1,695.193
804,15,19,2,1,547.618
804,15,20,2,1,643.031
804,16,1,1,1,890.406
804,16,2,1,1,1782.52
804,16,3,1,1,864.95
804,16,4,1,1,847.722
804,16,5,1,1,857.281
804,16,6,1,1,1397.34
804,16,7,1,1,877.744
804,16,8,1,1,887.283
804,16,9,1,1,1016.7
804,16,10,1,1,895.196
804,16,11,1,1,941.908
804,16,12,1,1,1090.01
804,16,13,1,1,877.546
804,16,14,1,1,940.311
804,16,15,1,1,1352.34
804,16,16,1,1,888.83
804,16,17,1,1,740.913
804,16,18,1,1,1145.38
804,16,19,1,1,1135.66
804,16,20,1,1,795.153
804,17,1,1,1,735.225
804,17,2,1,1,790.173
804,17,3,1,1,1116.92
804,17,4,1,1,837.921
804,17,5,1,1,887.493
804,17,6,1,1,960.94
804,17,7,1,1,938.316
804,17,8,1,1,846.285
804,17,9,1,1,799.827
804,17,10,1,1,849.343
804,17,11,1,1,821.631
804,17,12,1,1,721.85
804,17,13,1,1,1059.46
804,17,14,1,1,809.869
804,17,15,1,1,1123.52
804,17,16,1,1,951.217
804,17,17,1,1,821.686
804,17,18,1,1,804.616
804,17,19,1,1,918.252
804,17,20,1,1,983.63
804,18,1,2,1,623.496
804,18,2,2,1,566.779
804,18,3,2,1,570.873
804,18,4,2,1,520.244
804,18,5,2,1,709.112
804,18,6,2,1,628.168
804,18,7,2,1,571.386
804,18,8,2,1,592.072
804,18,9,2,1,538.077
804,18,10,2,1,537.529
804,18,11,2,1,542.292
804,18,12,2,1,701.728
804,18,13,2,1,516.922
804,18,14,2,1,622.96
804,18,15,2,1,574.306
804,18,16,2,1,698.878
804,18,17,2,1,703.478
804,18,18,2,1,518.568
804,18,19,2,1,824.628
804,18,20,2,1,676.933
804,19,1,2,1,751.777
804,19,2,2,1,814.863
804,19,3,2,1,546.932
804,19,4,2,1,698.485
804,19,5,2,1,633.667
804,19,6,2,1,816.725
804,19,7,2,1,733.005
804,19,8,2,1,769.469
804,19,9,2,1,613.842
804,19,10,2,1,666.373
804,19,11,2,1,617.578
804,19,12,2,1,734.175
804,19,13,2,1,850.537
804,19,14,2,1,670.864
804,19,15,2,1,589.859
804,19,16,2,1,637.3
804,19,17,2,1,655.215
804,19,18,2,1,745.092
804,19,19,2,1,712.164
804,19,20,2,1,697.985
804,20,1,1,1,829.027
804,20,2,1,1,963.928
804,20,3,1,1,999.813
804,20,4,1,1,665.105
804,20,5,1,1,960.384
804,20,6,1,1,1030.87
804,20,7,1,1,1157.39
804,20,8,1,1,846.413
804,20,9,1,1,1135.75
804,20,10,1,1,835.339
804,20,11,1,1,836.251
804,20,12,1,1,1254.45
804,20,13,1,1,961.898
804,20,14,1,1,939.123
804,20,15,1,1,689.728
804,20,16,1,1,883.604
804,20,17,1,1,957.077
804,20,18,1,1,1358.29
804,20,19,1,1,886.75
804,20,20,1,1,992.158
804,21,1,1,1,961.412
804,21,2,1,1,773.273
804,21,3,1,1,785.549
804,21,4,1,1,920.771
804,21,5,1,1,983.309
804,21,6,1,1,803.195
804,21,7,1,1,748.844
804,21,8,1,1,1049.16
804,21,9,1,1,762.285
804,21,10,1,1,907.925
804,21,11,1,1,802.718
804,21,12,1,1,756.402
804,21,13,1,1,806.038
804,21,14,1,1,1223.73
804,21,15,1,1,803.098
804,21,16,1,1,1031.18
804,21,17,1,1,877.676
804,21,18,1,1,903.228
804,21,19,1,1,933.975
804,21,20,1,1,1017.91
804,22,1,2,1,958.245
804,22,2,2,0,551.544
804,22,3,2,1,691.482
804,22,4,2,1,688.171
804,22,5,2,1,772.571
804,22,6,2,1,696.865
804,22,7,2,1,743.981
804,22,8,2,1,702.817
804,22,9,2,1,974.101
804,22,10,2,1,625.571
804,22,11,2,1,651.965
804,22,12,2,1,709.821
804,22,13,2,1,623.473
804,22,14,2,1,844.229
804,22,15,2,1,805.86
804,22,16,2,1,1073.3
804,22,17,2,1,624.208
804,22,18,2,1,756.919
804,22,19,2,1,827.928
804,22,20,2,1,562.992
804,23,1,2,1,695.214
804,23,2,2,1,571.834
804,23,3,2,1,632.413
804,23,4,2,1,591.677
804,23,5,2,1,679.062
804,23,6,2,1,648.952
804,23,7,2,1,826.898
804,23,8,2,1,606.902
804,23,9,2,1,643.599
804,23,10,2,1,672.172
804,23,11,2,1,641.925
804,23,12,2,1,627.897
804,23,13,2,1,723.348
804,23,14,2,1,636.973
804,23,15,2,1,596.216
804,23,16,2,1,683.581
804,23,17,2,1,600.052
804,23,18,2,1,658.021
804,23,19,2,1,641.243
804,23,20,2,1,675.085
804,24,1,1,1,813.089
804,24,2,1,1,758.878
804,24,3,1,0,821.911
804,24,4,1,1,883.998
804,24,5,1,1,853.372
804,24,6,1,1,665.621
804,24,7,1,1,1048.89
804,24,8,1,1,1401.99
804,24,9,1,1,858.177
804,24,10,1,1,806.538
804,24,11,1,1,879.614
804,24,12,1,1,1185.49
804,24,13,1,1,815.176
804,24,14,1,1,811.904
804,24,15,1,1,752.251
804,24,16,1,1,967.013
804,24,17,1,1,1288.4
804,24,18,1,1,707.764
804,24,19,1,1,1482.93
804,24,20,1,1,819.176
804,25,1,1,1,1258.43
804,25,2,1,1,805.735
804,25,3,1,1,1081.91
804,25,4,1,1,875.059
804,25,5,1,1,969.846
804,25,6,1,1,1293.84
804,25,7,1,1,1017.04
804,25,8,1,1,999.642
804,25,9,1,1,1248.81
804,25,10,1,1,713.558
804,25,11,1,1,752.664
804,25,12,1,1,1010.2
804,25,13,1,1,813.956
804,25,14,1,1,935.632
804,25,15,1,1,750.237
804,25,16,1,1,837.428
804,25,17,1,1,854.925
804,25,18,1,1,954.916
804,25,19,1,1,969.745
804,25,20,1,1,845.63
804,26,1,2,1,593.456
804,26,2,2,1,504.767
804,26,3,2,1,664.349
804,26,4,2,1,572.856
804,26,5,2,1,545.585
804,26,6,2,1,454.392
804,26,7,2,1,611.31
804,26,8,2,0,479.914
804,26,9,2,1,622.727
804,26,10,2,1,579.432
804,26,11,2,1,615.945
804,26,12,2,1,516.711
804,26,13,2,1,462.847
804,26,14,2,1,814.556
804,26,15,2,1,648.096
804,26,16,2,1,507.947
804,26,17,2,1,620.153
804,26,18,2,1,696.642
804,26,19,2,1,565.129
804,26,20,2,1,1175.19
804,27,1,2,1,924.547
804,27,2,2,1,528.57
804,27,3,2,1,626.715
804,27,4,2,1,631.398
804,27,5,2,1,614.592
804,27,6,2,1,579.279
804,27,7,2,1,570.531
804,27,8,2,1,791.263
804,27,9,2,1,502.26
804,27,10,2,1,651.11
804,27,11,2,1,695.773
804,27,12,2,1,508.094
804,27,13,2,1,635.64
804,27,14,2,1,669.494
804,27,15,2,1,644.91
804,27,16,2,1,430.63
804,27,17,2,1,670.357
804,27,18,2,1,597.558
804,27,19,2,1,655.48
804,27,20,2,1,604.095
804,28,1,1,1,806.124
804,28,2,1,1,959.739
804,28,3,1,1,1593.07
804,28,4,1,1,854.554
804,28,5,1,1,770.636
804,28,6,1,1,1188.33
804,28,7,1,1,813.187
804,28,8,1,1,657.374
804,28,9,1,1,1462.01
804,28,10,1,1,952.923
804,28,11,1,1,727.578
804,28,12,1,1,811.919
804,28,13,1,1,744.229
804,28,14,1,1,903.269
804,28,15,1,1,677.902
804,28,16,1,1,759.742
804,28,17,1,1,913.457
804,28,18,1,1,1072.18
804,28,19,1,1,969.28
804,28,20,1,1,669.115
804,29,1,1,1,711.614
804,29,2,1,1,665.427
804,29,3,1,1,672.558
804,29,4,1,1,847.792
804,29,5,1,1,897.3
804,29,6,1,1,879.98
804,29,7,1,1,710.796
804,29,8,1,1,685.917
804,29,9,1,0,631.74
804,29,10,1,1,840.913
804,29,11,1,1,730.372
804,29,12,1,1,942.959
804,29,13,1,1,685.544
804,29,14,1,1,751.359
804,29,15,1,1,846.458
804,29,16,1,1,1071.98
804,29,17,1,1,814.111
804,29,18,1,1,834.518
804,29,19,1,1,860.05
804,29,20,1,1,930.322
804,30,1,2,1,467.874
804,30,2,2,1,523.5
804,30,3,2,0,453.552
804,30,4,2,1,541.257
804,30,5,2,1,594.057
804,30,6,2,1,673.266
804,30,7,2,1,611.061
804,30,8,2,1,639.827
804,30,9,2,1,540.332
804,30,10,2,1,592.415
804,30,11,2,1,891.129
804,30,12,2,1,719.151
804,30,13,2,1,667.468
804,30,14,2,1,613.355
804,30,15,2,1,681.939
804,30,16,2,1,811.799
804,30,17,2,1,632.065
804,30,18,2,1,671.37
804,30,19,2,1,510.553
804,30,20,2,1,622.013
804,31,1,2,1,517.682
804,31,2,2,1,591.841
804,31,3,2,1,559.365
804,31,4,2,1,609.433
804,31,5,2,1,589.886
804,31,6,2,0,797.282
804,31,7,2,1,600.748
804,31,8,2,0,491.347
804,31,9,2,1,653.492
804,31,10,2,1,562.056
804,31,11,2,1,505.392
804,31,12,2,1,878.329
804,31,13,2,1,647.69
804,31,14,2,1,761.635
804,31,15,2,1,616.711
804,31,16,2,1,608.015
804,31,17,2,1,667.819
804,31,18,2,1,627.55
804,31,19,2,1,802.888
804,31,20,2,1,580.417
804,32,1,1,1,859.624
804,32,2,1,1,818.436
804,32,3,1,1,814.803
804,32,4,1,1,786.94
804,32,5,1,1,879.304
804,32,6,1,1,800.795
804,32,7,1,1,858.3
804,32,8,1,1,806.6
804,32,9,1,1,776.065
804,32,10,1,1,809.745
804,32,11,1,1,669.864
804,32,12,1,1,767.743
804,32,13,1,1,916.153
804,32,14,1,0,938.68
804,32,15,1,1,763.443
804,32,16,1,1,807.668
804,32,17,1,1,817.376
804,32,18,1,1,813.483
804,32,19,1,1,673.702
804,32,20,1,1,800.916
805,1,1,2,1,1275.96
805,1,2,2,1,1100.63
805,1,3,2,1,776.211
805,1,4,2,1,972.553
805,1,5,2,1,920.452
805,1,6,2,1,607.149
805,1,7,2,1,729.137
805,1,8,2,1,565.609
805,1,9,2,1,527.584
805,1,10,2,1,649.717
805,1,11,2,1,734.376
805,1,12,2,1,562.748
805,1,13,2,1,620.795
805,1,14,2,1,745.487
805,1,15,2,1,712.448
805,1,16,2,1,650.182
805,1,17,2,1,662.857
805,1,18,2,1,579.299
805,1,19,2,1,639.983
805,1,20,2,1,721.918
805,2,1,1,1,1221.32
805,2,2,1,1,1040.8
805,2,3,1,1,1273.91
805,2,4,1,1,783.969
805,2,5,1,1,1983
805,2,6,1,1,683.44
805,2,7,1,1,1165.39
805,2,8,1,1,1070.25
805,2,9,1,1,1100.63
805,2,10,1,1,842.979
805,2,11,1,1,1668.49
805,2,12,1,1,1049.69
805,2,13,1,1,885.441
805,2,14,1,1,1110.98
805,2,15,1,1,981.211
805,2,16,1,1,1216.53
805,2,17,1,1,716.599
805,2,18,1,0,1094.37
805,2,19,1,1,1116.08
805,2,20,1,1,1068.75
805,3,1,1,1,795.804
805,3,2,1,1,749.441
805,3,3,1,1,844.494
805,3,4,1,1,830.03
805,3,5,1,1,980.962
805,3,6,1,1,779.406
805,3,7,1,0,754.456
805,3,8,1,1,862.635
805,3,9,1,1,877.187
805,3,10,1,1,718.827
805,3,11,1,1,864.539
805,3,12,1,1,1063.6
805,3,13,1,0,1069.37
805,3,14,1,1,886.861
805,3,15,1,1,880.194
805,3,16,1,1,903.12
805,3,17,1,1,1077.14
805,3,18,1,1,822.865
805,3,19,1,1,957.69
805,3,20,1,1,830.855
805,4,1,2,1,718.98
805,4,2,2,1,640.8
805,4,3,2,1,554.591
805,4,4,2,1,668.751
805,4,5,2,1,907.829
805,4,6,2,1,762.563
805,4,7,2,1,782.916
805,4,8,2,1,739.277
805,4,9,2,1,775.619
805,4,10,2,1,521.228
805,4,11,2,1,659.415
805,4,12,2,1,608.044
805,4,13,2,1,524.593
805,4,14,2,1,817.341
805,4,15,2,1,533.543
805,4,16,2,0,514.562
805,4,17,2,1,535.133
805,4,18,2,1,523.773
805,4,19,2,1,552.692
805,4,20,2,1,728.008
805,5,1,2,1,642.3
805,5,2,2,0,452.473
805,5,3,2,1,726.493
805,5,4,2,0,616.298
805,5,5,2,1,1095.28
805,5,6,2,1,682.997
805,5,7,2,1,548.891
805,5,8,2,1,462.341
805,5,9,2,1,699.775
805,5,10,2,1,432.314
805,5,11,2,1,511.992
805,5,12,2,0,610.302
805,5,13,2,1,569.295
805,5,14,2,1,603.276
805,5,15,2,1,677.294
805,5,16,2,1,494.587
805,5,17,2,1,723.924
805,5,18,2,1,653.686
805,5,19,2,1,631.699
805,5,20,2,1,622.875
805,6,1,1,0,1269.8
805,6,2,1,1,961.044
805,6,3,1,1,1199.66
805,6,4,1,1,789.924
805,6,5,1,1,940.71
805,6,6,1,1,920.726
805,6,7,1,1,780.855
805,6,8,1,1,817.208
805,6,9,1,1,765.325
805,6,10,1,1,870.962
805,6,11,1,1,789.976
805,6,12,1,1,780.86
805,6,13,1,1,1001.09
805,6,14,1,1,687.58
805,6,15,1,1,881.481
805,6,16,1,1,682.926
805,6,17,1,1,1500.68
805,6,18,1,1,959.698
805,6,19,1,1,800.925
805,6,20,1,1,773.247
805,7,1,1,0,1151.91
805,7,2,1,1,1923.39
805,7,3,1,1,954.874
805,7,4,1,1,1041.52
805,7,5,1,1,834.675
805,7,6,1,1,1057.61
805,7,7,1,1,1071.93
805,7,8,1,1,814.18
805,7,9,1,1,882.617
805,7,10,1,1,884.052
805,7,11,1,1,840.107
805,7,12,1,1,705.651
805,7,13,1,0,496.208
805,7,14,1,1,730.737
805,7,15,1,1,830.98
805,7,16,1,1,758
805,7,17,1,1,815.672
805,7,18,1,1,811.291
805,7,19,1,1,720.148
805,7,20,1,1,721.852
805,8,1,2,1,892.598
805,8,2,2,1,715.298
805,8,3,2,1,626.501
805,8,4,2,1,647.129
805,8,5,2,1,595.614
805,8,6,2,1,531.022
805,8,7,2,1,509.158
805,8,8,2,1,548.647
805,8,9,2,1,700.112
805,8,10,2,1,560.499
805,8,11,2,0,1277.25
805,8,12,2,1,1387.09
805,8,13,2,1,664.897
805,8,14,2,1,704.011
805,8,15,2,1,655.187
805,8,16,2,1,1406.4
805,8,17,2,1,641.487
805,8,18,2,1,1051.37
805,8,19,2,1,604.443
805,8,20,2,1,901.86
805,9,1,2,1,758.864
805,9,2,2,1,856.413
805,9,3,2,1,780.71
805,9,4,2,1,635.658
805,9,5,2,1,610.753
805,9,6,2,1,756.964
805,9,7,2,1,579.833
805,9,8,2,1,696.543
805,9,9,2,1,690.217
805,9,10,2,1,620.031
805,9,11,2,1,643.292
805,9,12,2,1,735.85
805,9,13,2,1,876.361
805,9,14,2,1,645.644
805,9,15,2,1,746.373
805,9,16,2,1,785.28
805,9,17,2,1,909.722
805,9,18,2,1,724.292
805,9,19,2,1,526.294
805,9,20,2,1,560.156
805,10,1,1,1,1293.11
805,10,2,1,1,768.555
805,10,3,1,1,876.769
805,10,4,1,1,798.281
805,10,5,1,1,839.785
805,10,6,1,1,1081.33
805,10,7,1,1,810.477
805,10,8,1,1,638.646
805,10,9,1,1,728.475
805,10,10,1,0,730.332
805,10,11,1,1,824.522
805,10,12,1,1,831.546
805,10,13,1,1,760.939
805,10,14,1,1,842.72
805,10,15,1,1,844.051
805,10,16,1,1,733.847
805,10,17,1,1,786.063
805,10,18,1,1,1286.34
805,10,19,1,0,945.584
805,10,20,1,1,850.847
805,11,1,1,1,876.442
805,11,2,1,1,923.275
805,11,3,1,1,1076.56
805,11,4,1,1,797.765
805,11,5,1,1,919.222
805,11,6,1,1,896.59
805,11,7,1,1,975.399
805,11,8,1,1,699.236
805,11,9,1,1,898.331
805,11,10,1,1,777.202
805,11,11,1,1,1053.49
805,11,12,1,0,785.128
805,11,13,1,1,869.218
805,11,14,1,1,748.188
805,11,15,1,1,827.175
805,11,16,1,1,650.236
805,11,17,1,1,806.721
805,11,18,1,1,752.299
805,11,19,1,1,791.24
805,11,20,1,1,734.061
805,12,1,2,1,866.179
805,12,2,2,0,971.781
805,12,3,2,1,794.071
805,12,4,2,1,675.758
805,12,5,2,1,805.504
805,12,6,2,1,641.713
805,12,7,2,1,526.42
805,12,8,2,0,1111.88
805,12,9,2,1,803.954
805,12,10,2,1,757.068
805,12,11,2,1,636.604
805,12,12,2,1,952.942
805,12,13,2,1,735.738
805,12,14,2,1,731.552
805,12,15,2,1,709.079
805,12,16,2,1,996.917
805,12,17,2,1,613.927
805,12,18,2,0,845.239
805,12,19,2,1,1097.38
805,12,20,2,1,853.088
805,13,1,2,1,1065.92
805,13,2,2,1,680.324
805,13,3,2,1,610.088
805,13,4,2,1,556.164
805,13,5,2,1,702.165
805,13,6,2,1,637.361
805,13,7,2,1,671.241
805,13,8,2,1,934.38
805,13,9,2,1,618.395
805,13,10,2,0,487.132
805,13,11,2,0,589.94
805,13,12,2,1,520.427
805,13,13,2,1,653.087
805,13,14,2,1,654.977
805,13,15,2,1,603.526
805,13,16,2,1,661.51
805,13,17,2,1,532.705
805,13,18,2,1,622.758
805,13,19,2,1,557.922
805,13,20,2,1,637.645
805,14,1,1,1,913.973
805,14,2,1,1,1344.72
805,14,3,1,1,726.508
805,14,4,1,1,712.345
805,14,5,1,1,666.061
805,14,6,1,1,761.288
805,14,7,1,1,922.83
805,14,8,1,1,767.034
805,14,9,1,1,811.345
805,14,10,1,0,775.429
805,14,11,1,1,942.332
805,14,12,1,1,932.985
805,14,13,1,1,856.92
805,14,14,1,1,941.198
805,14,15,1,1,873.037
805,14,16,1,1,823.989
805,14,17,1,1,886.843
805,14,18,1,1,882.924
805,14,19,1,1,964.246
805,14,20,1,1,789.608
805,15,1,1,1,1317.14
805,15,2,1,1,709.869
805,15,3,1,1,924.894
805,15,4,1,1,773.684
805,15,5,1,0,698.616
805,15,6,1,1,788.197
805,15,7,1,1,771.271
805,15,8,1,1,703.48
805,15,9,1,1,894.542
805,15,10,1,1,690.774
805,15,11,1,1,775.178
805,15,12,1,1,747.607
805,15,13,1,1,802.508
805,15,14,1,1,630.592
805,15,15,1,1,1061.89
805,15,16,1,1,777.806
805,15,17,1,1,565.991
805,15,18,1,0,768.007
805,15,19,1,1,622.975
805,15,20,1,1,827.523
805,16,1,2,1,559.987
805,16,2,2,1,599.389
805,16,3,2,1,654.779
805,16,4,2,1,731.395
805,16,5,2,1,850.259
805,16,6,2,1,859.774
805,16,7,2,1,562.619
805,16,8,2,1,500.726
805,16,9,2,1,601.546
805,16,10,2,0,486.228
805,16,11,2,1,717.712
805,16,12,2,1,575.279
805,16,13,2,1,676.026
805,16,14,2,1,570.711
805,16,15,2,1,688.026
805,16,16,2,1,545.959
805,16,17,2,1,632.611
805,16,18,2,1,728.684
805,16,19,2,1,602.216
805,16,20,2,1,716.181
805,17,1,2,1,621.066
805,17,2,2,1,657.828
805,17,3,2,1,486.488
805,17,4,2,1,715.265
805,17,5,2,1,690.423
805,17,6,2,1,660.333
805,17,7,2,1,504.808
805,17,8,2,1,504.333
805,17,9,2,1,671.733
805,17,10,2,1,463.039
805,17,11,2,0,494.638
805,17,12,2,1,677.876
805,17,13,2,1,551.939
805,17,14,2,1,681.201
805,17,15,2,1,667.76
805,17,16,2,1,634.87
805,17,17,2,1,620.168
805,17,18,2,1,513.559
805,17,19,2,1,552.948
805,17,20,2,1,720.4
805,18,1,1,1,1098.14
805,18,2,1,1,885.953
805,18,3,1,1,879.448
805,18,4,1,1,854.162
805,18,5,1,1,847.775
805,18,6,1,1,793.161
805,18,7,1,1,840.116
805,18,8,1,1,721.581
805,18,9,1,1,792.852
805,18,10,1,1,807.881
805,18,11,1,1,841.3
805,18,12,1,1,818.811
805,18,13,1,1,799.038
805,18,14,1,1,840.595
805,18,15,1,1,850.072
805,18,16,1,1,798.463
805,18,17,1,1,768.001
805,18,18,1,1,876.265
805,18,19,1,1,1069.62
805,18,20,1,1,684.128
805,19,1,1,1,696.763
805,19,2,1,1,789.218
805,19,3,1,1,686.797
805,19,4,1,1,816.705
805,19,5,1,1,876.935
805,19,6,1,1,803.701
805,19,7,1,1,1000.06
805,19,8,1,1,961.182
805,19,9,1,1,754.42
805,19,10,1,1,897.455
805,19,11,1,1,685.661
805,19,12,1,1,887.504
805,19,13,1,1,819.465
805,19,14,1,1,807.735
805,19,15,1,1,761.259
805,19,16,1,1,784.352
805,19,17,1,1,767.335
805,19,18,1,1,795.571
805,19,19,1,1,829.152
805,19,20,1,1,820.033
805,20,1,2,1,1116.6
805,20,2,2,1,645.671
805,20,3,2,1,487.527
805,20,4,2,1,705.89
805,20,5,2,0,520.924
805,20,6,2,1,940.808
805,20,7,2,1,667.683
805,20,8,2,1,602.793
805,20,9,2,1,644.693
805,20,10,2,1,473.258
805,20,11,2,1,504.953
805,20,12,2,1,565.691
805,20,13,2,1,639.653
805,20,14,2,0,540.164
805,20,15,2,1,798.075
805,20,16,2,1,447.709
805,20,17,2,1,554.064
805,20,18,2,1,548.09
805,20,19,2,1,699.585
805,20,20,2,1,647.938
805,21,1,2,1,921.081
805,21,2,2,1,482.458
805,21,3,2,1,567.305
805,21,4,2,1,657.483
805,21,5,2,1,581.932
805,21,6,2,1,690.61
805,21,7,2,1,652.503
805,21,8,2,1,601.133
805,21,9,2,1,515.073
805,21,10,2,1,517.189
805,21,11,2,1,548.653
805,21,12,2,1,622.878
805,21,13,2,0,539.366
805,21,14,2,1,576.104
805,21,15,2,0,719.349
805,21,16,2,1,627.471
805,21,17,2,1,730.742
805,21,18,2,1,583.267
805,21,19,2,1,598.149
805,21,20,2,1,832.542
805,22,1,1,1,678.673
805,22,2,1,1,664.574
805,22,3,1,1,791.77
805,22,4,1,1,798.785
805,22,5,1,1,688.286
805,22,6,1,1,644.733
805,22,7,1,0,750.605
805,22,8,1,0,858.755
805,22,9,1,1,1100.37
805,22,10,1,1,695.907
805,22,11,1,1,772.317
805,22,12,1,1,734.099
805,22,13,1,1,674.284
805,22,14,1,1,753.568
805,22,15,1,1,791.92
805,22,16,1,1,727.565
805,22,17,1,1,851.864
805,22,18,1,0,821.549
805,22,19,1,1,996.197
805,22,20,1,1,852.903
805,23,1,1,1,892.117
805,23,2,1,1,712.145
805,23,3,1,1,673.858
805,23,4,1,1,707.768
805,23,5,1,1,722.801
805,23,6,1,1,636.713
805,23,7,1,1,806.703
805,23,8,1,1,858.784
805,23,9,1,1,806.92
805,23,10,1,1,648.487
805,23,11,1,1,797.062
805,23,12,1,1,790.671
805,23,13,1,1,701.595
805,23,14,1,1,692.67
805,23,15,1,1,937.219
805,23,16,1,1,741.279
805,23,17,1,1,860.241
805,23,18,1,1,715.023
805,23,19,1,1,700.868
805,23,20,1,1,715.887
805,24,1,2,1,1118.15
805,24,2,2,1,1031.28
805,24,3,2,1,613.772
805,24,4,2,1,562.413
805,24,5,2,1,692.405
805,24,6,2,0,432.881
805,24,7,2,1,706.229
805,24,8,2,1,577.447
805,24,9,2,1,677.538
805,24,10,2,1,541.32
805,24,11,2,1,698.147
805,24,12,2,1,689.201
805,24,13,2,1,586.95
805,24,14,2,1,762.389
805,24,15,2,1,683.356
805,24,16,2,1,789.887
805,24,17,2,1,636.821
805,24,18,2,1,830.762
805,24,19,2,1,805.779
805,24,20,2,1,599.223
805,25,1,2,0,473.026
805,25,2,2,1,621.838
805,25,3,2,1,634.574
805,25,4,2,1,599.037
805,25,5,2,1,720.753
805,25,6,2,1,618.787
805,25,7,2,1,639.243
805,25,8,2,1,681.253
805,25,9,2,1,733.688
805,25,10,2,1,690.133
805,25,11,2,1,686.635
805,25,12,2,1,523.13
805,25,13,2,1,613.308
805,25,14,2,1,700.513
805,25,15,2,1,611.63
805,25,16,2,1,776.196
805,25,17,2,1,639.066
805,25,18,2,1,625.234
805,25,19,2,1,544.362
805,25,20,2,1,455.112
805,26,1,1,1,956.391
805,26,2,1,1,781.841
805,26,3,1,1,874.03
805,26,4,1,1,659.623
805,26,5,1,1,664.018
805,26,6,1,1,679.266
805,26,7,1,0,675.74
805,26,8,1,1,744.249
805,26,9,1,1,743.199
805,26,10,1,1,622.156
805,26,11,1,1,626.688
805,26,12,1,0,905.996
805,26,13,1,1,635.287
805,26,14,1,1,1021.28
805,26,15,1,1,737.08
805,26,16,1,1,757.518
805,26,17,1,1,636.532
805,26,18,1,0,630.296
805,26,19,1,1,802.697
805,26,20,1,1,854.865
805,27,1,1,1,797.972
805,27,2,1,1,735.554
805,27,3,1,1,900.007
805,27,4,1,0,968.147
805,27,5,1,1,710.501
805,27,6,1,0,773.647
805,27,7,1,1,1079.14
805,27,8,1,1,792.196
805,27,9,1,1,823.087
805,27,10,1,1,763.475
805,27,11,1,1,791.737
805,27,12,1,1,766.747
805,27,13,1,1,890.873
805,27,14,1,1,879.064
805,27,15,1,1,824.512
805,27,16,1,1,636.59
805,27,17,1,1,798.563
805,27,18,1,1,709.588
805,27,19,1,1,724.715
805,27,20,1,1,798.329
805,28,1,2,1,1254.92
805,28,2,2,1,740.907
805,28,3,2,1,1201.22
805,28,4,2,1,762.096
805,28,5,2,1,1211.78
805,28,6,2,1,959.409
805,28,7,2,1,1136.48
805,28,8,2,1,676.222
805,28,9,2,1,1021.85
805,28,10,2,1,988.453
805,28,11,2,0,496.439
805,28,12,2,1,719.766
805,28,13,2,1,553.609
805,28,14,2,1,624.988
805,28,15,2,1,608.068
805,28,16,2,1,676.948
805,28,17,2,1,814.554
805,28,18,2,1,658.965
805,28,19,2,1,599.412
805,28,20,2,1,809.276
805,29,1,2,1,700
805,29,2,2,1,600.495
805,29,3,2,1,621.213
805,29,4,2,1,633.997
805,29,5,2,1,561.017
805,29,6,2,1,531.095
805,29,7,2,1,743.829
805,29,8,2,1,604.323
805,29,9,2,1,563.558
805,29,10,2,1,557.707
805,29,11,2,1,687.663
805,29,12,2,1,713.622
805,29,13,2,0,648.724
805,29,14,2,1,703.923
805,29,15,2,1,526.877
805,29,16,2,1,595.52
805,29,17,2,1,634.878
805,29,18,2,1,674.273
805,29,19,2,1,721.545
805,29,20,2,1,594.385
805,30,1,1,1,791.915
805,30,2,1,1,1422.87
805,30,3,1,1,1161.89
805,30,4,1,1,618.867
805,30,5,1,1,743.487
805,30,6,1,1,958.506
805,30,7,1,1,679.687
805,30,8,1,1,745.583
805,30,9,1,1,760.561
805,30,10,1,1,626.273
805,30,11,1,1,790.947
805,30,12,1,1,773.917
805,30,13,1,1,690.205
805,30,14,1,1,692.26
805,30,15,1,1,749.859
805,30,16,1,1,900.91
805,30,17,1,1,707.594
805,30,18,1,1,930.728
805,30,19,1,1,830.801
805,30,20,1,1,765.564
805,31,1,1,1,710.705
805,31,2,1,1,661.798
805,31,3,1,1,946.396
805,31,4,1,1,672.946
805,31,5,1,1,816.244
805,31,6,1,1,724.348
805,31,7,1,1,1142.2
805,31,8,1,1,908.387
805,31,9,1,1,971.098
805,31,10,1,1,1743.03
805,31,11,1,1,881.416
805,31,12,1,1,760.244
805,31,13,1,1,591.186
805,31,14,1,1,598.671
805,31,15,1,1,645.977
805,31,16,1,1,810.653
805,31,17,1,1,302.685
805,31,18,1,1,828.129
805,31,19,1,1,850.844
805,31,20,1,1,743.032
805,32,1,2,1,636.99
805,32,2,2,1,830.878
805,32,3,2,1,749.719
805,32,4,2,0,748.731
805,32,5,2,1,653.84
805,32,6,2,1,791.62
805,32,7,2,1,766.739
805,32,8,2,1,722.729
805,32,9,2,1,772.522
805,32,10,2,1,761.008
805,32,11,2,1,610.742
805,32,12,2,1,852.606
805,32,13,2,1,582.072
805,32,14,2,1,589.491
805,32,15,2,1,628.772
805,32,16,2,1,611.999
805,32,17,2,1,504.85
805,32,18,2,1,655.574
805,32,19,2,1,719.358
805,32,20,2,1,702.501
806,1,1,1,1,1930.61
806,1,2,1,1,2077.26
806,1,3,1,1,1492.33
806,1,4,1,1,2111.21
806,1,5,1,1,1534.25
806,1,6,1,0,7577.09
806,1,7,1,1,3643.92
806,1,8,1,1,1512.63
806,1,9,1,1,1942.27
806,1,10,1,1,2159.74
806,1,11,1,1,1012.55
806,1,12,1,1,1195.07
806,1,13,1,1,1097.15
806,1,14,1,1,1212.82
806,1,15,1,1,992.239
806,1,16,1,1,1022.89
806,1,17,1,1,2269.3
806,1,18,1,1,1153.5
806,1,19,1,1,943.604
806,1,20,1,1,1059.83
806,2,1,2,1,1725.3
806,2,2,2,1,4522.57
806,2,3,2,1,836.852
806,2,4,2,1,662.374
806,2,5,2,1,922.945
806,2,6,2,1,780.225
806,2,7,2,1,899.206
806,2,8,2,1,809.861
806,2,9,2,1,718.149
806,2,10,2,1,711.968
806,2,11,2,1,887.06
806,2,12,2,1,640.501
806,2,13,2,1,914.497
806,2,14,2,1,737.357
806,2,15,2,1,1061.48
806,2,16,2,1,945.532
806,2,17,2,1,797.428
806,2,18,2,1,740.214
806,2,19,2,1,760.604
806,2,20,2,1,743.617
806,3,1,2,1,823.579
806,3,2,2,1,598.538
806,3,3,2,1,472.515
806,3,4,2,1,743.998
806,3,5,2,1,623.234
806,3,6,2,1,694.331
806,3,7,2,1,634.849
806,3,8,2,1,652.832
806,3,9,2,1,697.368
806,3,10,2,1,693.902
806,3,11,2,1,658.257
806,3,12,2,1,550.765
806,3,13,2,1,502.228
806,3,14,2,1,539.093
806,3,15,2,0,479.869
806,3,16,2,1,924.014
806,3,17,2,1,973.246
806,3,18,2,1,817.267
806,3,19,2,1,765.469
806,3,20,2,1,849.914
806,4,1,1,1,1511.84
806,4,2,1,1,1109.47
806,4,3,1,1,1843.75
806,4,4,1,1,1323.36
806,4,5,1,1,1035.82
806,4,6,1,1,1156.98
806,4,7,1,1,1021.96
806,4,8,1,1,1068.34
806,4,9,1,1,1658.84
806,4,10,1,1,1301.47
806,4,11,1,1,1107.37
806,4,12,1,1,894.957
806,4,13,1,1,1043.19
806,4,14,1,1,1084.27
806,4,15,1,1,1197.31
806,4,16,1,1,1411.4
806,4,17,1,1,1022.46
806,4,18,1,1,1021.15
806,4,19,1,1,952.805
806,4,20,1,1,1279.46
806,5,1,1,1,2697.12
806,5,2,1,1,1057.55
806,5,3,1,1,957.275
806,5,4,1,0,1190.63
806,5,5,1,1,1126.73
806,5,6,1,1,895.716
806,5,7,1,1,1115.7
806,5,8,1,1,812.735
806,5,9,1,1,915.766
806,5,10,1,1,850.344
806,5,11,1,1,918.046
806,5,12,1,1,1039.86
806,5,13,1,1,974.283
806,5,14,1,1,1506.24
806,5,15,1,1,903.855
806,5,16,1,1,966.617
806,5,17,1,1,898.476
806,5,18,1,1,1065.31
806,5,19,1,1,1103.08
806,5,20,1,1,883.152
806,6,1,2,1,655.128
806,6,2,2,1,491.66
806,6,3,2,1,672.647
806,6,4,2,1,783.623
806,6,5,2,1,844.089
806,6,6,2,1,725.566
806,6,7,2,1,791.289
806,6,8,2,1,718.24
806,6,9,2,1,853.451
806,6,10,2,1,791.076
806,6,11,2,1,869.802
806,6,12,2,1,660.686
806,6,13,2,1,857.297
806,6,14,2,1,759.915
806,6,15,2,1,753.626
806,6,16,2,1,746.692
806,6,17,2,1,578.353
806,6,18,2,1,729.834
806,6,19,2,1,734.23
806,6,20,2,1,866.616
806,7,1,2,1,892.789
806,7,2,2,1,600.94
806,7,3,2,1,677.595
806,7,4,2,1,551.527
806,7,5,2,1,905.489
806,7,6,2,1,736.248
806,7,7,2,1,767.187
806,7,8,2,1,547.565
806,7,9,2,1,683.123
806,7,10,2,1,772.904
806,7,11,2,1,835.806
806,7,12,2,1,821.406
806,7,13,2,1,649.517
806,7,14,2,1,715.54
806,7,15,2,1,797.153
806,7,16,2,1,806.742
806,7,17,2,1,671.743
806,7,18,2,1,687.631
806,7,19,2,1,585.386
806,7,20,2,1,752.731
806,8,1,1,1,1104.32
806,8,2,1,1,1148.06
806,8,3,1,1,906.308
806,8,4,1,1,1201.05
806,8,5,1,1,1545.88
806,8,6,1,1,863.308
806,8,7,1,0,1054.17
806,8,8,1,1,1152.52
806,8,9,1,1,1015.53
806,8,10,1,1,869.881
806,8,11,1,1,940.205
806,8,12,1,1,976.852
806,8,13,1,1,1044.66
806,8,14,1,1,997.656
806,8,15,1,1,982.945
806,8,16,1,1,893.536
806,8,17,1,1,1318.89
806,8,18,1,1,991.667
806,8,19,1,1,966.027
806,8,20,1,1,1162.01
806,9,1,1,1,1005.38
806,9,2,1,1,889.191
806,9,3,1,1,1037.39
806,9,4,1,1,1190.46
806,9,5,1,1,1660.63
806,9,6,1,1,959.283
806,9,7,1,1,1080.53
806,9,8,1,1,1022.97
806,9,9,1,1,1034.75
806,9,10,1,1,1017.21
806,9,11,1,1,943.831
806,9,12,1,1,862.351
806,9,13,1,1,901.234
806,9,14,1,1,1131.84
806,9,15,1,1,1143.55
806,9,16,1,1,877.802
806,9,17,1,1,748.488
806,9,18,1,1,771.655
806,9,19,1,1,887.937
806,9,20,1,1,1033.3
806,10,1,2,1,723.087
806,10,2,2,1,692.937
806,10,3,2,1,617.481
806,10,4,2,1,664.799
806,10,5,2,1,730.505
806,10,6,2,1,447.043
806,10,7,2,1,633.176
806,10,8,2,1,952.379
806,10,9,2,1,905.691
806,10,10,2,1,568.56
806,10,11,2,1,826.487
806,10,12,2,1,801.378
806,10,13,2,1,714.954
806,10,14,2,1,591.378
806,10,15,2,1,654.747
806,10,16,2,1,672.609
806,10,17,2,1,655.846
806,10,18,2,1,684.364
806,10,19,2,1,910.244
806,10,20,2,1,700.946
806,11,1,2,1,687.095
806,11,2,2,1,571.714
806,11,3,2,1,672.344
806,11,4,2,1,711.583
806,11,5,2,1,590.693
806,11,6,2,1,806.077
806,11,7,2,1,842.367
806,11,8,2,1,611.854
806,11,9,2,1,728.447
806,11,10,2,1,706.171
806,11,11,2,1,611.944
806,11,12,2,1,752.597
806,11,13,2,1,719.669
806,11,14,2,1,582.698
806,11,15,2,1,646.156
806,11,16,2,1,914.663
806,11,17,2,1,785.366
806,11,18,2,1,717.778
806,11,19,2,1,719.463
806,11,20,2,1,638.465
806,12,1,1,1,1030.39
806,12,2,1,1,836.857
806,12,3,1,1,896.922
806,12,4,1,1,741.145
806,12,5,1,1,884.176
806,12,6,1,1,861.542
806,12,7,1,1,817.65
806,12,8,1,1,845.929
806,12,9,1,1,879.408
806,12,10,1,1,872.82
806,12,11,1,1,975.646
806,12,12,1,1,1051.5
806,12,13,1,1,1079.35
806,12,14,1,1,867.13
806,12,15,1,1,889.884
806,12,16,1,1,811.349
806,12,17,1,1,1084.87
806,12,18,1,1,920.348
806,12,19,1,1,826.082
806,12,20,1,1,776.73
806,13,1,1,1,878.356
806,13,2,1,1,893.166
806,13,3,1,1,777.351
806,13,4,1,1,1053.69
806,13,5,1,1,921.379
806,13,6,1,1,1082.84
806,13,7,1,1,947.825
806,13,8,1,1,1442.46
806,13,9,1,1,858.751
806,13,10,1,1,806.921
806,13,11,1,1,1168.54
806,13,12,1,1,761.485
806,13,13,1,1,939.229
806,13,14,1,1,1543.27
806,13,15,1,1,945.914
806,13,16,1,1,861.94
806,13,17,1,1,860.785
806,13,18,1,1,752.855
806,13,19,1,1,919.896
806,13,20,1,1,601.237
806,14,1,2,1,1230.06
806,14,2,2,1,668.059
806,14,3,2,1,587.314
806,14,4,2,1,746.582
806,14,5,2,1,561.759
806,14,6,2,1,539.705
806,14,7,2,1,536.603
806,14,8,2,1,810.607
806,14,9,2,1,734.814
806,14,10,2,1,821.91
806,14,11,2,1,631.451
806,14,12,2,1,553.393
806,14,13,2,1,824.675
806,14,14,2,1,743.622
806,14,15,2,1,670.633
806,14,16,2,1,853.845
806,14,17,2,1,690.139
806,14,18,2,1,617.116
806,14,19,2,1,717.731
806,14,20,2,1,799.416
806,15,1,2,1,854.985
806,15,2,2,1,656.538
806,15,3,2,1,645.047
806,15,4,2,1,737.57
806,15,5,2,1,608.714
806,15,6,2,1,741.288
806,15,7,2,1,788.275
806,15,8,2,1,832.619
806,15,9,2,1,823.548
806,15,10,2,1,526.476
806,15,11,2,1,635.126
806,15,12,2,1,549.194
806,15,13,2,1,767.13
806,15,14,2,1,899.48
806,15,15,2,1,674.2
806,15,16,2,1,491.953
806,15,17,2,1,640.849
806,15,18,2,1,706.764
806,15,19,2,1,649.908
806,15,20,2,1,606.55
806,16,1,1,1,652.609
806,16,2,1,1,993.238
806,16,3,1,1,967.735
806,16,4,1,1,809.039
806,16,5,1,1,813.41
806,16,6,1,1,934.862
806,16,7,1,1,989.736
806,16,8,1,1,748.107
806,16,9,1,1,872.579
806,16,10,1,1,769.889
806,16,11,1,1,1062.19
806,16,12,1,1,724.654
806,16,13,1,1,686.347
806,16,14,1,1,824.113
806,16,15,1,1,863.087
806,16,16,1,1,744.609
806,16,17,1,1,815.626
806,16,18,1,1,859.791
806,16,19,1,1,888.006
806,16,20,1,1,1436.03
806,17,1,1,1,992.769
806,17,2,1,1,842.056
806,17,3,1,1,867.558
806,17,4,1,1,853.043
806,17,5,1,1,750.469
806,17,6,1,1,797.571
806,17,7,1,1,919.087
806,17,8,1,1,848.578
806,17,9,1,1,818.113
806,17,10,1,1,894.282
806,17,11,1,1,874.314
806,17,12,1,1,1075.84
806,17,13,1,1,1010.26
806,17,14,1,1,835.311
806,17,15,1,1,836.949
806,17,16,1,1,966.573
806,17,17,1,1,954.431
806,17,18,1,1,696.918
806,17,19,1,1,1136.18
806,17,20,1,1,763.696
806,18,1,2,1,811.321
806,18,2,2,1,727.613
806,18,3,2,1,689.388
806,18,4,2,1,733.764
806,18,5,2,1,831.378
806,18,6,2,1,750.399
806,18,7,2,1,781.493
806,18,8,2,1,748.424
806,18,9,2,1,766.146
806,18,10,2,1,690.425
806,18,11,2,1,820.288
806,18,12,2,1,936.535
806,18,13,2,1,860.589
806,18,14,2,1,768.62
806,18,15,2,1,573.061
806,18,16,2,1,513.714
806,18,17,2,1,561.147
806,18,18,2,1,899.232
806,18,19,2,1,791.302
806,18,20,2,1,726.295
806,19,1,2,1,501.837
806,19,2,2,1,621.317
806,19,3,2,1,916.787
806,19,4,2,1,683.517
806,19,5,2,1,637.255
806,19,6,2,1,719.002
806,19,7,2,1,752.851
806,19,8,2,1,506.665
806,19,9,2,1,772.88
806,19,10,2,1,545.023
806,19,11,2,1,744.611
806,19,12,2,1,735.453
806,19,13,2,1,555.841
806,19,14,2,1,677.893
806,19,15,2,1,631.745
806,19,16,2,1,607.019
806,19,17,2,1,864.964
806,19,18,2,1,615.784
806,19,19,2,1,756.296
806,19,20,2,1,763.323
806,20,1,1,1,867.505
806,20,2,1,1,1036.97
806,20,3,1,1,1123.5
806,20,4,1,1,855.262
806,20,5,1,1,691.255
806,20,6,1,1,783.975
806,20,7,1,1,958.763
806,20,8,1,1,898.626
806,20,9,1,1,1049.54
806,20,10,1,1,893.098
806,20,11,1,1,1049.16
806,20,12,1,1,972.953
806,20,13,1,1,1272.88
806,20,14,1,1,841.421
806,20,15,1,1,939.125
806,20,16,1,1,959.009
806,20,17,1,1,792.265
806,20,18,1,1,1215.35
806,20,19,1,1,986.69
806,20,20,1,1,865.32
806,21,1,1,1,702.065
806,21,2,1,1,1029.46
806,21,3,1,1,883.797
806,21,4,1,1,869.402
806,21,5,1,1,780.176
806,21,6,1,1,928.352
806,21,7,1,1,668.375
806,21,8,1,1,771.711
806,21,9,1,1,813.221
806,21,10,1,1,833.562
806,21,11,1,1,1155
806,21,12,1,1,843.925
806,21,13,1,1,1253.47
806,21,14,1,1,720.811
806,21,15,1,1,746.577
806,21,16,1,1,809.555
806,21,17,1,1,941.792
806,21,18,1,1,745.801
806,21,19,1,1,736.875
806,21,20,1,1,959.909
806,22,1,2,1,605.02
806,22,2,2,1,743.128
806,22,3,2,1,510.053
806,22,4,2,1,429.722
806,22,5,2,1,669.296
806,22,6,2,1,684.408
806,22,7,2,1,678.299
806,22,8,2,1,496.112
806,22,9,2,1,676.993
806,22,10,2,1,606.923
806,22,11,2,1,611.313
806,22,12,2,1,632.002
806,22,13,2,1,575.245
806,22,14,2,1,948.147
806,22,15,2,1,589.352
806,22,16,2,1,604.627
806,22,17,2,1,737.296
806,22,18,2,1,760.624
806,22,19,2,1,746.059
806,22,20,2,1,745.142
806,23,1,2,1,650.53
806,23,2,2,1,716.552
806,23,3,2,1,670.228
806,23,4,2,1,712.007
806,23,5,2,1,705.783
806,23,6,2,1,776.83
806,23,7,2,1,647.823
806,23,8,2,1,585.758
806,23,9,2,1,657.117
806,23,10,2,1,533.641
806,23,11,2,1,730.539
806,23,12,2,1,878.747
806,23,13,2,1,704.202
806,23,14,2,1,644.867
806,23,15,2,1,625.207
806,23,16,2,1,712.514
806,23,17,2,1,615.577
806,23,18,2,1,612.311
806,23,19,2,1,840.84
806,23,20,2,1,685.074
806,24,1,1,1,811.111
806,24,2,1,1,823.359
806,24,3,1,1,763.709
806,24,4,1,1,749.262
806,24,5,1,1,836.345
806,24,6,1,1,611.3
806,24,7,1,1,1327.95
806,24,8,1,1,920.377
806,24,9,1,1,1015.09
806,24,10,1,1,888.284
806,24,11,1,1,937.774
806,24,12,1,1,782.056
806,24,13,1,0,754.062
806,24,14,1,1,1061.14
806,24,15,1,1,1033.47
806,24,16,1,1,898.573
806,24,17,1,1,817.419
806,24,18,1,1,917.433
806,24,19,1,1,878.813
806,24,20,1,1,751.773
806,25,1,1,1,822.421
806,25,2,1,1,877.42
806,25,3,1,1,812.297
806,25,4,1,1,872.384
806,25,5,1,1,753.792
806,25,6,1,1,915.61
806,25,7,1,1,788.973
806,25,8,1,1,779.858
806,25,9,1,1,936.137
806,25,10,1,1,756.246
806,25,11,1,1,701.827
806,25,12,1,1,898.238
806,25,13,1,1,857.041
806,25,14,1,1,1101.11
806,25,15,1,1,1027.61
806,25,16,1,1,801.951
806,25,17,1,1,803.62
806,25,18,1,1,919.943
806,25,19,1,1,1203.96
806,25,20,1,1,978.054
806,26,1,2,1,518.771
806,26,2,2,1,672.966
806,26,3,2,1,770.888
806,26,4,2,1,665.68
806,26,5,2,1,696.858
806,26,6,2,1,645.395
806,26,7,2,1,647.336
806,26,8,2,1,777.29
806,26,9,2,1,730.651
806,26,10,2,1,516.467
806,26,11,2,1,542.618
806,26,12,2,1,846.199
806,26,13,2,1,930.265
806,26,14,2,1,622.262
806,26,15,2,1,514.845
806,26,16,2,1,778.328
806,26,17,2,1,630.627
806,26,18,2,1,773.882
806,26,19,2,1,727.597
806,26,20,2,1,689.34
806,27,1,2,1,672.308
806,27,2,2,1,583.577
806,27,3,2,1,807.027
806,27,4,2,1,635.098
806,27,5,2,1,677.025
806,27,6,2,1,582.888
806,27,7,2,1,518.233
806,27,8,2,1,496.408
806,27,9,2,1,517.248
806,27,10,2,1,791.511
806,27,11,2,1,566.344
806,27,12,2,1,619.146
806,27,13,2,1,663.72
806,27,14,2,1,748.2
806,27,15,2,1,571.193
806,27,16,2,1,751.955
806,27,17,2,1,761.948
806,27,18,2,1,915.377
806,27,19,2,1,802.143
806,27,20,2,1,694.304
806,28,1,1,1,790.84
806,28,2,1,1,805.884
806,28,3,1,1,799.457
806,28,4,1,1,697.14
806,28,5,1,1,861.55
806,28,6,1,1,860.387
806,28,7,1,1,971.028
806,28,8,1,1,831.025
806,28,9,1,1,800.569
806,28,10,1,1,780.721
806,28,11,1,1,705.041
806,28,12,1,0,688.251
806,28,13,1,1,926.474
806,28,14,1,1,896.037
806,28,15,1,1,862.644
806,28,16,1,1,933.482
806,28,17,1,1,836.012
806,28,18,1,1,773.718
806,28,19,1,1,865.83
806,28,20,1,1,763.378
806,29,1,1,1,951.293
806,29,2,1,1,838.037
806,29,3,1,1,935.508
806,29,4,1,1,1251.33
806,29,5,1,0,742.844
806,29,6,1,1,992.527
806,29,7,1,1,887.018
806,29,8,1,1,755.12
806,29,9,1,1,1018.11
806,29,10,1,1,853.97
806,29,11,1,1,801.403
806,29,12,1,1,795.775
806,29,13,1,1,914.7
806,29,14,1,1,817.395
806,29,15,1,1,893.597
806,29,16,1,1,836.29
806,29,17,1,1,821.839
806,29,18,1,1,898.141
806,29,19,1,1,944.909
806,29,20,1,1,868.857
806,30,1,2,1,592.778
806,30,2,2,1,584.154
806,30,3,2,1,636.891
806,30,4,2,1,742.831
806,30,5,2,1,733.798
806,30,6,2,1,615.566
806,30,7,2,1,670.935
806,30,8,2,1,624.655
806,30,9,2,1,748.742
806,30,10,2,1,804.382
806,30,11,2,1,712.505
806,30,12,2,1,551.666
806,30,13,2,1,761.771
806,30,14,2,1,675.521
806,30,15,2,1,698.534
806,30,16,2,1,695.15
806,30,17,2,1,542.186
806,30,18,2,1,701.654
806,30,19,2,1,660.811
806,30,20,2,1,665.302
806,31,1,2,1,616.274
806,31,2,2,1,607.673
806,31,3,2,1,692.241
806,31,4,2,1,582.091
806,31,5,2,1,805.454
806,31,6,2,1,705.679
806,31,7,2,1,744.846
806,31,8,2,1,671.92
806,31,9,2,1,479.097
806,31,10,2,1,657.294
806,31,11,2,1,773.805
806,31,12,2,1,626.192
806,31,13,2,1,630.772
806,31,14,2,1,598.062
806,31,15,2,1,680.068
806,31,16,2,1,618.036
806,31,17,2,1,694.461
806,31,18,2,1,709.612
806,31,19,2,1,604.66
806,31,20,2,1,638.782
806,32,1,1,1,798.55
806,32,2,1,1,784.229
806,32,3,1,1,895.169
806,32,4,1,1,747.222
806,32,5,1,1,746.212
806,32,6,1,1,921.25
806,32,7,1,1,698.687
806,32,8,1,1,887.266
806,32,9,1,1,923.195
806,32,10,1,1,1044.56
806,32,11,1,1,872.43
806,32,12,1,1,801.868
806,32,13,1,1,891.36
806,32,14,1,1,767.473
806,32,15,1,1,889.14
806,32,16,1,1,861.132
806,32,17,1,1,1025.35
806,32,18,1,1,826.424
806,32,19,1,1,1091.96
806,32,20,1,1,775.679
807,1,1,2,1,804.549
807,1,2,2,0,832.841
807,1,3,2,1,756.343
807,1,4,2,1,779.301
807,1,5,2,1,607.183
807,1,6,2,1,540.361
807,1,7,2,1,433.025
807,1,8,2,0,624.816
807,1,9,2,1,642.637
807,1,10,2,1,513.874
807,1,11,2,0,538.018
807,1,12,2,1,539.953
807,1,13,2,1,544.607
807,1,14,2,1,496.122
807,1,15,2,1,442.297
807,1,16,2,1,548.676
807,1,17,2,1,508.143
807,1,18,2,0,523.533
807,1,19,2,1,496.03
807,1,20,2,1,453.028
807,2,1,1,1,1840.67
807,2,2,1,0,1328.14
807,2,3,1,0,589.929
807,2,4,1,1,639.693
807,2,5,1,0,601.575
807,2,6,1,0,1200.02
807,2,7,1,0,28548.1
807,2,8,1,1,1180.46
807,2,9,1,1,728.09
807,2,10,1,1,721.661
807,2,11,1,1,1603.53
807,2,12,1,1,1315.47
807,2,13,1,1,979.501
807,2,14,1,1,1823.46
807,2,15,1,0,1826.36
807,2,16,1,1,1065.75
807,2,17,1,1,1744.13
807,2,18,1,1,1274.62
807,2,19,1,1,1088.61
807,2,20,1,1,2236.31
807,3,1,1,1,878.844
807,3,2,1,1,1248.28
807,3,3,1,1,728.953
807,3,4,1,1,909.298
807,3,5,1,1,678.718
807,3,6,1,1,1240.6
807,3,7,1,1,801.375
807,3,8,1,1,1698.88
807,3,9,1,1,1437.56
807,3,10,1,1,1269.77
807,3,11,1,0,995.86
807,3,12,1,1,830.246
807,3,13,1,1,1197.84
807,3,14,1,1,870.749
807,3,15,1,1,1285.45
807,3,16,1,1,886.034
807,3,17,1,1,879.477
807,3,18,1,1,696.864
807,3,19,1,1,725.294
807,3,20,1,1,1303.23
807,4,1,2,1,613.671
807,4,2,2,1,562.349
807,4,3,2,1,620.433
807,4,4,2,1,512.983
807,4,5,2,1,448.525
807,4,6,2,1,746.808
807,4,7,2,1,593.883
807,4,8,2,1,481.205
807,4,9,2,1,566.084
807,4,10,2,1,536.228
807,4,11,2,1,663.574
807,4,12,2,1,508.015
807,4,13,2,1,547.695
807,4,14,2,0,427.115
807,4,15,2,1,607.957
807,4,16,2,1,532.41
807,4,17,2,1,521.281
807,4,18,2,1,594.905
807,4,19,2,1,437.339
807,4,20,2,1,767.679
807,5,1,2,1,531.993
807,5,2,2,1,592.853
807,5,3,2,1,642.923
807,5,4,2,1,471.373
807,5,5,2,1,487.007
807,5,6,2,1,465.069
807,5,7,2,1,454.132
807,5,8,2,1,499.165
807,5,9,2,1,552.066
807,5,10,2,0,543.333
807,5,11,2,1,523.935
807,5,12,2,1,558.281
807,5,13,2,1,605.614
807,5,14,2,1,559.599
807,5,15,2,1,505.616
807,5,16,2,1,617.124
807,5,17,2,1,581.691
807,5,18,2,1,669.147
807,5,19,2,1,500.186
807,5,20,2,1,475.889
807,6,1,1,1,1109.23
807,6,2,1,1,1454.23
807,6,3,1,1,902.597
807,6,4,1,1,757.322
807,6,5,1,1,900.376
807,6,6,1,1,1304.46
807,6,7,1,1,955.788
807,6,8,1,0,1146.49
807,6,9,1,1,1027.31
807,6,10,1,1,844.382
807,6,11,1,0,925.95
807,6,12,1,1,900.351
807,6,13,1,1,680.477
807,6,14,1,1,818.271
807,6,15,1,1,1022.55
807,6,16,1,1,1068.96
807,6,17,1,1,912.584
807,6,18,1,1,791.424
807,6,19,1,1,701.802
807,6,20,1,1,853.476
807,7,1,1,1,725.381
807,7,2,1,1,1359.19
807,7,3,1,1,999.743
807,7,4,1,1,1096.77
807,7,5,1,1,780.621
807,7,6,1,1,848.871
807,7,7,1,1,1138.43
807,7,8,1,1,917.853
807,7,9,1,1,844.787
807,7,10,1,1,1022.23
807,7,11,1,1,884.703
807,7,12,1,1,982.179
807,7,13,1,0,1266.07
807,7,14,1,1,794.631
807,7,15,1,1,772.139
807,7,16,1,1,1112.59
807,7,17,1,1,902.191
807,7,18,1,1,1178.79
807,7,19,1,1,1046.46
807,7,20,1,1,711.693
807,8,1,2,1,582.316
807,8,2,2,1,653.698
807,8,3,2,1,631.765
807,8,4,2,1,670.895
807,8,5,2,1,680.708
807,8,6,2,1,570.593
807,8,7,2,1,583.386
807,8,8,2,1,670.716
807,8,9,2,1,653.601
807,8,10,2,1,583.705
807,8,11,2,1,574.971
807,8,12,2,1,707.851
807,8,13,2,1,613.462
807,8,14,2,1,594.148
807,8,15,2,1,569.609
807,8,16,2,1,566.233
807,8,17,2,1,512.222
807,8,18,2,1,599.862
807,8,19,2,1,577.745
807,8,20,2,1,702.495
807,9,1,2,1,525.187
807,9,2,2,1,473.908
807,9,3,2,1,580.24
807,9,4,2,1,616.874
807,9,5,2,1,610.804
807,9,6,2,1,527.414
807,9,7,2,1,660.278
807,9,8,2,1,576.877
807,9,9,2,1,672.172
807,9,10,2,1,689.97
807,9,11,2,1,699.82
807,9,12,2,1,506.902
807,9,13,2,1,487.897
807,9,14,2,1,540.636
807,9,15,2,1,649.464
807,9,16,2,1,611.461
807,9,17,2,1,576.053
807,9,18,2,1,636.809
807,9,19,2,1,710.764
807,9,20,2,1,525.745
807,10,1,1,1,1102.92
807,10,2,1,1,989.353
807,10,3,1,1,985.215
807,10,4,1,1,1269.21
807,10,5,1,1,1096.64
807,10,6,1,1,1006.97
807,10,7,1,1,824.075
807,10,8,1,1,854.964
807,10,9,1,1,787.093
807,10,10,1,1,831.338
807,10,11,1,1,838.254
807,10,12,1,1,917.152
807,10,13,1,1,963.995
807,10,14,1,1,879.941
807,10,15,1,1,910.758
807,10,16,1,1,1061.33
807,10,17,1,1,971.776
807,10,18,1,1,767.651
807,10,19,1,1,724.06
807,10,20,1,1,829.721
807,11,1,1,1,891.666
807,11,2,1,1,677.221
807,11,3,1,1,807.037
807,11,4,1,1,723.258
807,11,5,1,1,1141.02
807,11,6,1,1,896.597
807,11,7,1,1,852.727
807,11,8,1,1,790.203
807,11,9,1,1,813.18
807,11,10,1,1,974.754
807,11,11,1,1,882.818
807,11,12,1,0,1140.11
807,11,13,1,1,857.705
807,11,14,1,1,733.945
807,11,15,1,1,785.482
807,11,16,1,1,1113.13
807,11,17,1,1,839.397
807,11,18,1,1,889.019
807,11,19,1,1,813.047
807,11,20,1,1,745.354
807,12,1,2,1,671.544
807,12,2,2,1,606.966
807,12,3,2,1,667.427
807,12,4,2,1,533.298
807,12,5,2,1,722.074
807,12,6,2,1,574.597
807,12,7,2,1,629.927
807,12,8,2,1,653.062
807,12,9,2,1,513.68
807,12,10,2,1,577.241
807,12,11,2,1,624.577
807,12,12,2,1,541.111
807,12,13,2,1,564.585
807,12,14,2,1,697.36
807,12,15,2,1,709.841
807,12,16,2,1,580.863
807,12,17,2,1,553.546
807,12,18,2,1,587.667
807,12,19,2,1,682.975
807,12,20,2,1,620.92
807,13,1,2,1,748.728
807,13,2,2,1,667.766
807,13,3,2,1,587.002
807,13,4,2,1,522.353
807,13,5,2,1,612.496
807,13,6,2,1,593.137
807,13,7,2,1,648.498
807,13,8,2,1,556.991
807,13,9,2,1,519.033
807,13,10,2,1,638.394
807,13,11,2,1,640.319
807,13,12,2,1,522.147
807,13,13,2,1,516.321
807,13,14,2,1,630.543
807,13,15,2,1,597.898
807,13,16,2,1,535.726
807,13,17,2,1,580.556
807,13,18,2,1,619.998
807,13,19,2,0,608.452
807,13,20,2,1,588.469
807,14,1,1,1,1042.97
807,14,2,1,1,876.289
807,14,3,1,1,795.13
807,14,4,1,1,700.649
807,14,5,1,1,761.014
807,14,6,1,1,746.747
807,14,7,1,1,1193.77
807,14,8,1,1,728.002
807,14,9,1,1,812.297
807,14,10,1,1,800.652
807,14,11,1,0,786.262
807,14,12,1,1,958.396
807,14,13,1,1,975.752
807,14,14,1,1,910.274
807,14,15,1,1,1029.02
807,14,16,1,1,843.509
807,14,17,1,1,1269.01
807,14,18,1,1,810.845
807,14,19,1,1,1044.4
807,14,20,1,0,877.776
807,15,1,1,1,899.13
807,15,2,1,1,721.851
807,15,3,1,1,907.654
807,15,4,1,1,842.444
807,15,5,1,1,851.993
807,15,6,1,1,808.009
807,15,7,1,1,937.758
807,15,8,1,1,1053.62
807,15,9,1,1,729.422
807,15,10,1,1,789.856
807,15,11,1,1,788.204
807,15,12,1,1,737.044
807,15,13,1,1,701.469
807,15,14,1,1,748.553
807,15,15,1,1,803.628
807,15,16,1,1,1023.84
807,15,17,1,1,758.383
807,15,18,1,1,671.996
807,15,19,1,1,761.791
807,15,20,1,1,934.239
807,16,1,2,1,551.165
807,16,2,2,1,705.151
807,16,3,2,1,680.28
807,16,4,2,1,634.104
807,16,5,2,1,601.383
807,16,6,2,1,547.387
807,16,7,2,1,616.293
807,16,8,2,1,604.775
807,16,9,2,1,686.804
807,16,10,2,1,632.601
807,16,11,2,1,663.903
807,16,12,2,1,735.129
807,16,13,2,1,558.126
807,16,14,2,1,512.206
807,16,15,2,1,586.335
807,16,16,2,1,609.7
807,16,17,2,1,478.421
807,16,18,2,1,648.524
807,16,19,2,1,586.417
807,16,20,2,1,647.145
807,17,1,2,1,615.98
807,17,2,2,1,572.605
807,17,3,2,1,617.268
807,17,4,2,1,605.9
807,17,5,2,1,639.846
807,17,6,2,1,481.967
807,17,7,2,1,588.13
807,17,8,2,1,555.407
807,17,9,2,0,474.919
807,17,10,2,1,540.275
807,17,11,2,1,577.074
807,17,12,2,1,608.46
807,17,13,2,1,570.388
807,17,14,2,1,735.151
807,17,15,2,1,547.614
807,17,16,2,1,658.964
807,17,17,2,1,567.471
807,17,18,2,1,609.513
807,17,19,2,1,598.262
807,17,20,2,1,560.125
807,18,1,1,1,697.841
807,18,2,1,1,688.95
807,18,3,1,1,706.693
807,18,4,1,1,705.821
807,18,5,1,1,774.419
807,18,6,1,1,722.674
807,18,7,1,1,620.434
807,18,8,1,1,688.942
807,18,9,1,1,730.846
807,18,10,1,1,676.601
807,18,11,1,1,1142.46
807,18,12,1,1,850.09
807,18,13,1,1,723.665
807,18,14,1,1,970.769
807,18,15,1,1,870.634
807,18,16,1,1,840.032
807,18,17,1,1,753.511
807,18,18,1,1,640.6
807,18,19,1,1,786.584
807,18,20,1,1,817.525
807,19,1,1,1,749.331
807,19,2,1,1,804.475
807,19,3,1,1,726.108
807,19,4,1,1,935.907
807,19,5,1,1,859.822
807,19,6,1,1,1023.89
807,19,7,1,1,782.392
807,19,8,1,1,882.802
807,19,9,1,1,724.177
807,19,10,1,1,718.147
807,19,11,1,1,639.849
807,19,12,1,1,793.723
807,19,13,1,1,832.64
807,19,14,1,1,730.091
807,19,15,1,1,718.514
807,19,16,1,1,736.343
807,19,17,1,1,1100.68
807,19,18,1,1,824.291
807,19,19,1,1,791.151
807,19,20,1,1,726.165
807,20,1,2,1,2477.52
807,20,2,2,1,555.951
807,20,3,2,1,638.125
807,20,4,2,0,583.93
807,20,5,2,1,609.053
807,20,6,2,1,707.144
807,20,7,2,1,674.303
807,20,8,2,1,692.101
807,20,9,2,1,581.869
807,20,10,2,1,557.136
807,20,11,2,1,590.655
807,20,12,2,1,646.172
807,20,13,2,1,635.274
807,20,14,2,1,725.043
807,20,15,2,1,678.988
807,20,16,2,1,616.652
807,20,17,2,1,637.199
807,20,18,2,1,623.252
807,20,19,2,1,485.862
807,20,20,2,1,523.616
807,21,1,2,1,556.821
807,21,2,2,1,526.947
807,21,3,2,1,601.022
807,21,4,2,1,779.013
807,21,5,2,1,583.323
807,21,6,2,1,531.92
807,21,7,2,1,558.161
807,21,8,2,1,688.267
807,21,9,2,1,505.953
807,21,10,2,1,585.564
807,21,11,2,1,464.973
807,21,12,2,1,637.842
807,21,13,2,1,695.796
807,21,14,2,1,532.226
807,21,15,2,1,526.382
807,21,16,2,1,672.506
807,21,17,2,1,703.759
807,21,18,2,1,638.825
807,21,19,2,1,544.776
807,21,20,2,1,680.261
807,22,1,1,1,812.318
807,22,2,1,1,757.862
807,22,3,1,1,1052.91
807,22,4,1,1,848.619
807,22,5,1,1,740.863
807,22,6,1,1,939.907
807,22,7,1,1,679.89
807,22,8,1,1,753.741
807,22,9,1,1,968.765
807,22,10,1,1,796.653
807,22,11,1,1,838.283
807,22,12,1,1,871.93
807,22,13,1,1,774.896
807,22,14,1,1,826.962
807,22,15,1,1,1129.77
807,22,16,1,1,701.502
807,22,17,1,1,748.472
807,22,18,1,1,774.252
807,22,19,1,1,858.548
807,22,20,1,1,942.642
807,23,1,1,1,752.537
807,23,2,1,1,826.346
807,23,3,1,1,737.2
807,23,4,1,1,861.589
807,23,5,1,1,708.506
807,23,6,1,1,926.095
807,23,7,1,1,663.563
807,23,8,1,1,614.71
807,23,9,1,1,803.286
807,23,10,1,1,637.034
807,23,11,1,1,878.861
807,23,12,1,1,752.303
807,23,13,1,1,839.303
807,23,14,1,1,784.823
807,23,15,1,1,717.13
807,23,16,1,1,902.894
807,23,17,1,1,725.72
807,23,18,1,1,1367.3
807,23,19,1,1,1442.55
807,23,20,1,1,917.534
807,24,1,2,1,493.109
807,24,2,2,1,633.925
807,24,3,2,1,611.796
807,24,4,2,1,539.089
807,24,5,2,1,583.917
807,24,6,2,1,551.238
807,24,7,2,1,726.643
807,24,8,2,1,715.008
807,24,9,2,1,716.795
807,24,10,2,1,611.938
807,24,11,2,1,523.241
807,24,12,2,1,621.322
807,24,13,2,1,705.995
807,24,14,2,1,659.853
807,24,15,2,1,584.274
807,24,16,2,1,591.675
807,24,17,2,1,726.971
807,24,18,2,1,600.742
807,24,19,2,1,562.682
807,24,20,2,1,644.822
807,25,1,2,1,546.957
807,25,2,2,1,506.497
807,25,3,2,1,572.75
807,25,4,2,1,580.008
807,25,5,2,1,627.308
807,25,6,2,1,626.549
807,25,7,2,1,540.437
807,25,8,2,1,587.988
807,25,9,2,1,523.195
807,25,10,2,1,637.376
807,25,11,2,1,495.254
807,25,12,2,1,566.771
807,25,13,2,1,568.797
807,25,14,2,1,549.677
807,25,15,2,1,623.645
807,25,16,2,1,652.277
807,25,17,2,1,576.896
807,25,18,2,1,584.16
807,25,19,2,1,599.44
807,25,20,2,1,633.425
807,26,1,1,1,1030.97
807,26,2,1,1,773.518
807,26,3,1,1,847.245
807,26,4,1,1,688.65
807,26,5,1,1,818.676
807,26,6,1,1,814.682
807,26,7,1,1,842.935
807,26,8,1,1,836.553
807,26,9,1,1,814.147
807,26,10,1,1,682.195
807,26,11,1,1,804.082
807,26,12,1,0,712.247
807,26,13,1,1,1025.43
807,26,14,1,1,791.874
807,26,15,1,1,697.466
807,26,16,1,1,909.845
807,26,17,1,1,737.421
807,26,18,1,1,656.998
807,26,19,1,1,845.658
807,26,20,1,1,727.088
807,27,1,1,1,695.137
807,27,2,1,1,715.79
807,27,3,1,1,826.783
807,27,4,1,1,807.198
807,27,5,1,1,651.408
807,27,6,1,1,567.953
807,27,7,1,1,700.713
807,27,8,1,1,617.006
807,27,9,1,1,749.688
807,27,10,1,1,620.729
807,27,11,1,1,705.372
807,27,12,1,1,856.578
807,27,13,1,1,732.68
807,27,14,1,1,833.074
807,27,15,1,1,786.59
807,27,16,1,1,718.79
807,27,17,1,1,888.575
807,27,18,1,1,716.655
807,27,19,1,1,710.457
807,27,20,1,1,736.331
807,28,1,2,1,641.119
807,28,2,2,1,440.297
807,28,3,2,1,551.959
807,28,4,2,1,474.106
807,28,5,2,1,593.685
807,28,6,2,1,577.02
807,28,7,2,1,621.613
807,28,8,2,1,637.006
807,28,9,2,1,526.918
807,28,10,2,1,520.876
807,28,11,2,1,435.106
807,28,12,2,1,581.38
807,28,13,2,1,628.759
807,28,14,2,1,532.054
807,28,15,2,1,592.858
807,28,16,2,1,576.399
807,28,17,2,1,644.897
807,28,18,2,1,614.766
807,28,19,2,1,483.439
807,28,20,2,1,552.36
807,29,1,2,1,560.878
807,29,2,2,1,538.904
807,29,3,2,0,578.198
807,29,4,2,1,568.554
807,29,5,2,1,661.716
807,29,6,2,1,556.943
807,29,7,2,1,646.939
807,29,8,2,1,576.904
807,29,9,2,1,728.385
807,29,10,2,1,625.256
807,29,11,2,1,553.272
807,29,12,2,1,648.638
807,29,13,2,1,626.583
807,29,14,2,1,649.254
807,29,15,2,1,595.85
807,29,16,2,1,602.542
807,29,17,2,1,649.987
807,29,18,2,1,623.033
807,29,19,2,1,651.616
807,29,20,2,1,688.185
807,30,1,1,1,559.934
807,30,2,1,1,863.302
807,30,3,1,1,926.108
807,30,4,1,1,847.488
807,30,5,1,1,744.989
807,30,6,1,1,808.089
807,30,7,1,1,1041.66
807,30,8,1,1,874.729
807,30,9,1,1,793.58
807,30,10,1,1,808.481
807,30,11,1,0,642.103
807,30,12,1,1,865.342
807,30,13,1,1,848.113
807,30,14,1,1,780.123
807,30,15,1,1,723.134
807,30,16,1,1,710.926
807,30,17,1,1,846.608
807,30,18,1,1,735.52
807,30,19,1,1,1020.51
807,30,20,1,1,968.361
807,31,1,1,1,831.504
807,31,2,1,1,654.256
807,31,3,1,1,680.173
807,31,4,1,1,682.02
807,31,5,1,1,870.603
807,31,6,1,1,717.386
807,31,7,1,1,887.061
807,31,8,1,1,728.548
807,31,9,1,1,893.018
807,31,10,1,1,728.943
807,31,11,1,1,781.388
807,31,12,1,1,825.746
807,31,13,1,1,784.691
807,31,14,1,1,903.619
807,31,15,1,1,782.349
807,31,16,1,1,749.13
807,31,17,1,1,708.28
807,31,18,1,1,1707.4
807,31,19,1,1,1072.52
807,31,20,1,1,737.512
807,32,1,2,1,566.57
807,32,2,2,1,632.532
807,32,3,2,1,594.535
807,32,4,2,1,713.83
807,32,5,2,1,624.905
807,32,6,2,1,576.227
807,32,7,2,1,711.57
807,32,8,2,1,675.948
807,32,9,2,1,603.036
807,32,10,2,1,605.017
807,32,11,2,1,767.019
807,32,12,2,1,640.732
807,32,13,2,1,618.695
807,32,14,2,1,543.197
807,32,15,2,1,574.619
807,32,16,2,1,531.441
807,32,17,2,1,608.116
807,32,18,2,1,770.177
807,32,19,2,1,614.473
807,32,20,2,1,595.068
808,1,1,1,0,634.965
808,1,2,1,1,950.952
808,1,3,1,0,1192.24
808,1,4,1,1,14240.8
808,1,5,1,1,850.626
808,1,6,1,1,892.396
808,1,7,1,1,1984.43
808,1,8,1,1,1994.24
808,1,9,1,1,839.077
808,1,10,1,1,1640.5
808,1,11,1,1,1032.44
808,1,12,1,1,750.923
808,1,13,1,1,1549.85
808,1,14,1,1,1571.54
808,1,15,1,1,1718.29
808,1,16,1,0,1333.78
808,1,17,1,1,1595.57
808,1,18,1,1,1256.94
808,1,19,1,0,1019.75
808,1,20,1,1,1357.22
808,2,1,2,1,694.371
808,2,2,2,1,682.97
808,2,3,2,1,708.926
808,2,4,2,1,523.879
808,2,5,2,1,694.092
808,2,6,2,1,810.415
808,2,7,2,1,614.726
808,2,8,2,1,643.358
808,2,9,2,1,717.284
808,2,10,2,1,684.393
808,2,11,2,0,632.796
808,2,12,2,1,570.152
808,2,13,2,1,830.742
